num,dataset,variable group,Variable Type (SAS),core,variable,label,whereClause,dataType,length,fractionDigits,sasFieldName,codeList,displayFormat,role,mandatory,comment,method,methodName,note,lengthAsData,lengthAsCodeList,originType,originDescription,crfPages,VARIABLE_CODELIST
1,ADAE,Identifier Variables for BDS Datasets,Char,Req,STUDYID,Study Identifier,,text,11,,STUDYID,Study Identifier,,,Yes,,,,,TRUE,TRUE,Predecessor,ADSL.STUDYID,,
2,ADAE,Identifier Variables for BDS Datasets,Char,Req,USUBJID,Unique Subject Identifier,,text,18,,USUBJID,,,,Yes,,,,,TRUE,,Predecessor,ADSL.USUBJID,,
3,ADAE,ADSL Identifier Variables,Char,Req,SUBJID,Subject Identifier for the Study,,text,3,,SUBJID,,,,No,,,,,TRUE,,Predecessor,ADSL.SUBJID,,
4,ADAE,Identifier Variables for BDS Datasets,Char,Perm,SITEID,Study Site Identifier,,text,2,,SITEID,Study Site Identifier,,,No,,,,,TRUE,TRUE,Predecessor,ADSL.SITEID,,
5,ADAE,ADSL Subject Demographics Variables,Num,Req,AGE,Age,,integer,2,,AGE,,,,No,,,,,TRUE,,Predecessor,ADSL.AGE,,
6,ADAE,ADSL Subject Demographics Variables,Char,Req,AGEU,Age Units,,text,5,,AGEU,Age Units,,,No,,,,,TRUE,TRUE,Predecessor,ADSL.AGEU,,YEARS
7,ADAE,ADSL Subject Demographics Variables,Char,Req,SEX,Sex,,text,1,,SEX,Sex,,,No,,,,,TRUE,TRUE,Predecessor,ADSL.SEX,,M@F
8,ADAE,ADSL Subject Demographics Variables,Char,Req,RACE,Race,,text,41,,RACE,Race,,,No,,,,,FALSE,TRUE,Predecessor,ADSL.RACE,,WHITE@OTHER@BLACK OR AFRICAN AMERICAN@ASIAN
9,ADAE,ADSL Population Indicator Variables,Char,Cond,SAFFL,Safety Population Flag,,text,1,,SAFFL,No Yes Response - N/Y,,,Yes,,,,,TRUE,TRUE,Predecessor,ADSL.SAFFL,,Y@N
10,ADAE,ADSL Population Indicator Variables (Sponsor-Defined),Char,,PKFL,Pharmacokinetic Analysis Population Flag,,text,1,,PKFL,No Yes Response - N/Y,,,No,,,,,TRUE,TRUE,Predecessor,ADSL.PKFL,,Y
11,ADAE,Treatment Timing Variables for BDS (Taken from ADSL),Num,,TRTSDT,Date of First Exposure to Treatment,,integer,5,,TRTSDT,,YYMMDD10.,,No,,,,,TRUE,,Predecessor,ADSL.TRTSDT,,
12,ADAE,Treatment Timing Variables for BDS (Taken from ADSL),Num,,TRTSTM,Time of First Exposure to Treatment,,integer,5,,TRTSTM,,TIME5.,,No,,,,,TRUE,,Predecessor,ADSL.TRTSTM,,
13,ADAE,Treatment Timing Variables for BDS (Taken from ADSL),Num,,TRTSDTM,Datetime of First Exposure to Treatment,,integer,10,,TRTSDTM,,E8601DT16.,,No,,,,,TRUE,,Predecessor,ADSL.TRTSDTM,,
14,ADAE,Treatment Timing Variables for BDS (Taken from ADSL),Num,,TRTEDT,Date of Last Exposure to Treatment,,integer,5,,TRTEDT,,YYMMDD10.,,No,,,,,TRUE,,Predecessor,ADSL.TRTEDT,,
15,ADAE,Treatment Timing Variables for BDS (Taken from ADSL),Num,,TRTETM,Time of Last Exposure to Treatment,,integer,5,,TRTETM,,TIME5.,,No,,,,,TRUE,,Predecessor,ADSL.TRTETM,,
16,ADAE,Treatment Timing Variables for BDS (Taken from ADSL),Num,,TRTEDTM,Datetime of Last Exposure to Treatment,,integer,10,,TRTEDTM,,E8601DT16.,,No,,,,,TRUE,,Predecessor,ADSL.TRTEDTM,,
17,ADAE,Record-Level Treatment Variables for BDS Datasets ,Char,Cond,TRTP,Planned Treatment,,text,30,,TRTP,Planned/Actual Treatment ,,,No,,,,,TRUE,TRUE,Predecessor,ADSL.TRT01P,,0.45 mg MEDI0618 (intravenous)@1.35 mg MEDI0618 (intravenous)@4 mg MEDI0618 (intravenous)@Placebo@12 mg MEDI0618 (intravenous)@40 mg MEDI0618 (intravenous)@100 mg MEDI0618 (intravenous)@200 mg MEDI0618 (intravenous)@IV 0.45 mg MEDI0618@IV 1.35 mg MEDI0618@IV 4 mg MEDI0618@IV 12 mg MEDI0618@IV 40 mg MEDI0618@IV 100 mg MEDI0618@IV 200 mg MEDI0618
18,ADAE,Record-Level Treatment Variables for BDS Datasets (Sponsor-Defined),Char,,TRTPG1,Planned Pooled Treatment 1,,text,8,,TRTPG1,Planned/Actual Pooled Treatment,,,No,,,,,TRUE,TRUE,Predecessor,ADSL.TRT01PG1,,MEDI0618@Placebo
19,ADAE,Record-Level Treatment Variables for BDS Datasets ,Char,,TRTA,Actual Treatment,,text,30,,TRTA,Planned/Actual Treatment ,,,No,,,,,TRUE,TRUE,Predecessor,ADSL.TRT01A,,0.45 mg MEDI0618 (intravenous)@1.35 mg MEDI0618 (intravenous)@4 mg MEDI0618 (intravenous)@Placebo@12 mg MEDI0618 (intravenous)@40 mg MEDI0618 (intravenous)@80 mg MEDI0618 (intravenous)@200 mg MEDI0618 (intravenous)@100 mg MEDI0618 (subcutaneous)
20,ADAE,Record-Level Treatment Variables for BDS Datasets (Sponsor-Defined),Char,,TRTAG1,Actual Pooled Treatment 1,,text,8,,TRTAG1,Planned/Actual Pooled Treatment,,,No,,,,,TRUE,TRUE,Predecessor,ADSL.TRT01AG1,,MEDI0618@Placebo
21,ADAE,Grouping Variables for BDS (Sponsor-Defined),Char,,COHORT,Cohort ,,text,23,,COHORT,Cohort,,,No,,,,,TRUE,TRUE,Predecessor,ADSL.COHORT,,COHORT 2 (INTRAVENOUS)@COHORT 3 (INTRAVENOUS)@COHORT 4 (INTRAVENOUS)@COHORT 5 (INTRAVENOUS)@COHORT 6 (INTRAVENOUS)@COHORT 7 (INTRAVENOUS)@COHORT 8 (INTRAVENOUS)@COHORT 9 (SUBCUTANEOUS)@COHORT2@COHORT3@COHORT4@COHORT5@COHORT6@COHORT7@COHORT8
22,ADAE,Grouping Variables for BDS (Sponsor-Defined),Char,,COHORTG1,Pooled Cohort Group 1,,text,24,,COHORTG1,Pooled Cohort Group 1,,,No,,,,,TRUE,TRUE,Predecessor,ADSL.COHORTG1,,COHORT 2 (INTRAVENOUS)@COHORT 3 (INTRAVENOUS)@COHORT 4 (INTRAVENOUS)@COHORT 5-8 (INTRAVENOUS)@COHORT 9 (SUBCUTANEOUS)@COHORT2@COHORT3@COHORT4@COHORT 5-8
23,ADAE,Grouping Variables for BDS (Sponsor-Defined),Char,,COHORTG2,Pooled Cohort Group 2,,text,24,,COHORTG2,Pooled Cohort Group 2,,,No,,,,,TRUE,TRUE,Predecessor,ADSL.COHORTG2,,COHORT 1-8 (INTRAVENOUS)@COHORT 1-8
24,ADAE,,Char,,ADAPOSFL,ADA Positive at any Visit,,text,1,,ADAPOSFL,No Yes Response - N/Y,,,No,,,,,TRUE,TRUE,Predecessor,ADSL.ADAPOSFL,,N@Y
25,ADAE,Identifier Variables,Num,Req,AESEQ,Sequence Number,,integer,1,,AESEQ,,,,Yes,,,,,TRUE,,Predecessor,AE.AESEQ,,
26,ADAE,Dictionary Coding Variables for MedDRA,Char,Req,AETERM,Reported Term for the Adverse Event,,text,41,,AETERM,,,,Yes,,,,,TRUE,,Predecessor,AE.AETERM,,
27,ADAE,Dictionary Coding Variables for MedDRA,Char,Req,AEDECOD,Dictionary-Derived Term,,text,28,,AEDECOD,,,,No,,,,,TRUE,,Predecessor,AE.AEDECOD,,PLEASE ADD DICTIONARY_@_PLEASE ADD DICTIONARY_
28,ADAE,Dictionary Coding Variables for MedDRA,Char,Req,AEBODSYS,Body System or Organ Class,,text,52,,AEBODSYS,,,,No,,,,,TRUE,,Predecessor,AE.AEBODSYS,,PLEASE ADD DICTIONARY_@_PLEASE ADD DICTIONARY_
29,ADAE,Dictionary Coding Variables for MedDRA,Num,Perm,AEBDSYCD,Body System or Organ Class Code,,integer,8,,AEBDSYCD,,,,No,,,,,TRUE,,Predecessor,AE.AEBDSYCD,,
30,ADAE,Dictionary Coding Variables for MedDRA,Char,Cond,AELLT,Lowest Level Term,,text,27,,AELLT,,,,No,,,,,TRUE,,Predecessor,AE.AELLT,,PLEASE ADD DICTIONARY_@_PLEASE ADD DICTIONARY_
31,ADAE,Dictionary Coding Variables for MedDRA,Num,Perm,AELLTCD,Lowest Level Term Code,,integer,8,,AELLTCD,,,,No,,,,,TRUE,,Predecessor,AE.AELLTCD,,
32,ADAE,Dictionary Coding Variables for MedDRA,Num,Perm,AEPTCD,Preferred Term Code,,integer,8,,AEPTCD,,,,No,,,,,TRUE,,Predecessor,AE.AEPTCD,,
33,ADAE,Dictionary Coding Variables for MedDRA,Char,Cond,AEHLT,High Level Term,,text,57,,AEHLT,,,,No,,,,,TRUE,,Predecessor,AE.AEHLT,,PLEASE ADD DICTIONARY_@_PLEASE ADD DICTIONARY_
34,ADAE,Dictionary Coding Variables for MedDRA,Num,Perm,AEHLTCD,High Level Term Code,,integer,8,,AEHLTCD,,,,No,,,,,TRUE,,Predecessor,AE.AEHLTCD,,
35,ADAE,Dictionary Coding Variables for MedDRA,Char,Cond,AEHLGT,High Level Group Term,,text,86,,AEHLGT,,,,No,,,,,TRUE,,Predecessor,AE.AEHLGT,,PLEASE ADD DICTIONARY_@_PLEASE ADD DICTIONARY_
36,ADAE,Dictionary Coding Variables for MedDRA,Num,Perm,AEHLGTCD,High Level Group Term Code,,integer,8,,AEHLGTCD,,,,No,,,,,TRUE,,Predecessor,AE.AEHLGTCD,,
39,ADAE,Timing Variables,Char,Perm,AESTDTC,Start Date/Time of Adverse Event,,text,16,,AESTDTC,,ISO 8601,,No,,,,,TRUE,,Predecessor,AE.AESTDTC,,
40,ADAE,Timing Variables,Num,Cond,ASTDT,Analysis Start Date,,integer,5,,ASTDT,,YYMMDD10.,,No,,Date part of AE.AESTDTC converted to numeric SAS date,MT.ADAE.ASTDT,,TRUE,,Derived,,,
41,ADAE,Timing Variables,Num,Cond,ASTTM,Analysis Start Time,,integer,5,,ASTTM,,TIME5.,,No,,"Time part of AE.AESTDTC converted to numeric SAS time. Set to ""00:00"" if missing",MT.ADAE.ASTTM,,,,Derived,,,
42,ADAE,Timing Variables,Num,Cond,ASTDTM,Analysis Start Date/Time,,integer,10,,ASTDTM,,E8601DT16.,,No,,"AE.AESTDTC converted to numeric SAS date with time part set to ""00:00"" in case of missing time",MT.ADAE.ASTDTM,,TRUE,,Derived,,,
43,ADAE,Timing Variables,Char,Cond,ASTTMF,Analysis Start Time Imputation Flag,,text,1,,ASTTMF,Time Imputation Flag,,,No,,,,,TRUE,TRUE,Assigned,,,H
44,ADAE,Timing Variables,Char,Perm,AEENDTC,End Date/Time of Adverse Event,,text,16,,AEENDTC,,ISO 8601,,No,,,,,TRUE,,Predecessor,AE.AEENDTC,,
45,ADAE,Timing Variables,Num,Cond,AENDT,Analysis End Date,,integer,5,,AENDT,,YYMMDD10.,,No,,Date part of AE.AEENDTC converted to numeric SAS date,MT.ADAE.AENDT,,TRUE,,Derived,,,
46,ADAE,Timing Variables,Num,Cond,AENTM,Analysis End Time,,integer,5,,AENTM,,TIME5.,,No,,"Time part of AE.AEENDTC converted to numeric SAS time. Set to ""23:59"" if missing",MT.ADAE.AENTM,,,,Derived,,,
47,ADAE,Timing Variables,Num,Cond,AENDTM,Analysis End Date/Time,,integer,10,,AENDTM,,E8601DT16.,,No,,"AE.AEENDTC converted to numeric SAS date with time part set to ""23:59"" in case of missing time",MT.ADAE.AENDTM,,TRUE,,Derived,,,
48,ADAE,Timing Variables,Char,Cond,AENTMF,Analysis End Time Imputation Flag,,text,1,,AENTMF,Time Imputation Flag,,,No,,,,,TRUE,TRUE,Assigned,,,H
49,ADAE,Timing Variables,Num,Perm,AESTDY,Study Day of Start of Adverse Event,,integer,2,,AESTDY,,,,No,,,,,TRUE,,Predecessor,AE.AESTDY,,
51,ADAE,Timing Variables,Num,Perm,AEENDY,Study Day of End of Adverse Event,,integer,2,,AEENDY,,,,No,,,,,TRUE,,Predecessor,AE.AENDY,,
52,ADAE,Timing Variables,Num,Perm,ADURN,Analysis Duration (N),,float,5,2,ADURN,,5.2,,No,,ADURN = (AENDTM - ASTDTM) / 86400,MT.ADAE.ADURN,,TRUE,,Derived,,,
53,ADAE,Timing Variables,Char,Cond,ADURU,Analysis Duration Units,,text,4,,ADURU,AE Time Units,,,No,,,,,TRUE,TRUE,Assigned,,,DAYS
54,ADAE,,Num,,AONSET,Onset Time Rel. to Treatment Start,,float,5,2,AONSET,,5.2,,No,,AONSET = ASTDTM - TRTSDTM / 86400,MT.ADAE.AONSET,,TRUE,,Derived,,,
55,ADAE,,Char,,AONSETU,Onset Time Rel. to Treatment Start Units,,text,4,,AONSETU,AE Time Units,,,No,,,,,TRUE,TRUE,Assigned,,,DAYS
58,ADAE,Indicator Variables,Char,Cond,TRTEMFL,Treatment Emergent Analysis Flag,,text,1,,TRTEMFL,No Yes Response - Y,,,No,,,,,TRUE,TRUE,Predecessor,"ADAE.AETRTEM where AETRTEM=""Y""",,Y
59,ADAE,Indicator Variables,Char,Perm,AETRTEM,Treatment Emergent Flag,,text,1,,AETRTEM,No Yes Response - N/Y,,,No,,,,,TRUE,TRUE,Predecessor,"SUPPAE.QVAL where QNAM=""AETRTEM""",,Y@N
63,ADAE,Occurrence Flag Variables,Char,Perm,AOCCFL,1st Occurrence within Subject Flag,,text,1,,AOCCFL,No Yes Response - Y,,,No,,"Set to ""Y"" for the first treatment emergent AE of the subject (TRTEMFL= ""Y"") after sorting for USUBJID and AE start time (ASTDTM)",MT.ADAE.AOCCFL,,TRUE,TRUE,Derived,,,Y
64,ADAE,Occurrence Flag Variables,Char,Perm,AOCCSFL,1st Occurrence of SOC Flag,,text,1,,AOCCSFL,No Yes Response - Y,,,No,,"Set to ""Y"" for the first treatment emergent AE of the subject (TRTEMFL = ""Y"") within each body system or organ class (AEBODSYS) after sorting by USUBJID, AEBODSYS, and AE start datetime (ASTDTM)",MT.ADAE.AOCCSFL,,TRUE,TRUE,Derived,,,Y
65,ADAE,Occurrence Flag Variables,Char,Perm,AOCCPFL,1st Occurrence of Preferred Term Flag,,text,1,,AOCCPFL,No Yes Response - Y,,,No,,"Set to ""Y"" for the first treatment-emergent AE of the subject (TRTEMFL = ""Y"") within equal dictionary-derived terms (AEDECOD) after sorting by USUBJID, AEBODSYS, AEDECOD and  AE start datetime (ASTDTM)",MT.ADAE.AOCCPFL,,TRUE,TRUE,Derived,,,Y
66,ADAE,Occurrence Flag Variables,Char,Perm,AOCCIFL,1st Max Sev./Int. Occurrence Flag,,text,1,,AOCCIFL,No Yes Response - Y,,,No,,"Set to ""Y"" for the first treatment-emergent AE of the subject (TRTEMFL = ""Y"") after sorting by USUBJID, descending AE severity (AESEV), and AE start datetime (ASTDTM)",MT.ADAE.AOCCIFL,,TRUE,TRUE,Derived,,,Y
67,ADAE,Occurrence Flag Variables,Char,Perm,AOCCSIFL,1st Max Sev./Int. Occur Within SOC Flag,,text,1,,AOCCSIFL,No Yes Response - Y,,,No,,"Set to ""Y"" for the first treatment-emergent AE of the subject (TRTEMFL = ""Y"") within each body system or organ class (AEBODSYS) after sorting by USUBJID, AEBODSYS, descending AE severity (AESEV), and AE start datetime (ASTDTM)",MT.ADAE.AOCCSIFL,,TRUE,TRUE,Derived,,,Y
68,ADAE,Occurrence Flag Variables,Char,Perm,AOCCPIFL,1st Max Sev./Int. Occur Within PT Flag,,text,1,,AOCCPIFL,No Yes Response - Y,,,No,,"Set to ""Y"" for the first treatment-emergent AE of the subject (TRTEMFL = ""Y"") within equal dictionary-derived terms (AEDECOD) after sorting by USUBJID, AEBODSYS, AEDECOD, descending AE severity (AESEV), and AE start datetime (ASTDTM) ",MT.ADAE.AOCCPIFL,,TRUE,TRUE,Derived,,,Y
69,ADAE,Occurrence Flag Variables (Sponsor-defined),Char,Perm,AOCC01FL,1st Occurrence of Related TEAE Flag,,text,1,,AOCC01FL,No Yes Response - Y,,,No,,"Set to ""Y"" for the first treatment-emergent AE related to study treatment of the subject  (TRTEMFL = ""Y"" and AEREL=""RELATED"") after sorting by USUBJID and AE start datetime (ASTDTM)",MT.ADAE.AOCC01FL,,TRUE,TRUE,Derived,,,Y
70,ADAE,Occurrence Flag Variables (Sponsor-defined),Char,Perm,AOCC02FL,1st Occurrence of Serious TEAE Flag,,text,1,,AOCC02FL,No Yes Response - Y,,,No,,"Set to ""Y"" for the first serious treatment-emergent AE of the subject (TRTEMFL = ""Y"" and AESER = ""Y"") after sorting by USUBJID and AE start datetime (ASTDTM)",MT.ADAE.AOCC02FL,,TRUE,TRUE,Derived,,,
71,ADAE,Occurrence Flag Variables (Sponsor-defined),Char,Perm,AOCC03FL,1st Occurrence of Rel. Serious TEAE Flag,,text,1,,AOCC03FL,No Yes Response - Y,,,No,,"Set to ""Y"" for the first serious treatment-emergent AE related to study treatment of the subject (TRTEMFL = ""Y"", AESER = ""Y"", AEREL = ""RELATED"") after sorting  by USUBJID and AE start datetime (ASTDTM)",MT.ADAE.AOCC03FL,,TRUE,TRUE,Derived,,,
72,ADAE,Occurrence Flag Variables (Sponsor-defined),Char,Perm,AOCC04FL,1st Occur of TEAE Lead to Disc. IP Flag,,text,1,,AOCC04FL,No Yes Response - Y,,,No,,"Set to ""Y"" for the first treatment-emergent AE leading to discontinuation of study treatment of the subject (TRTEMFL = ""Y"" and AEACN = ""WITHDRAWN"") after sorting by USUBJID and AE start datetime (ASTDTM)",MT.ADAE.AOCC04FL,,TRUE,TRUE,Derived,,,
73,ADAE,Occurrence Flag Variables (Sponsor-defined),Char,Perm,AOCC05FL,1st Occur of TEAE Leading to Disc. Flag,,text,1,,AOCC05FL,No Yes Response - Y,,,No,,"Set to ""Y"" for the first treatment-emergent AE  leading to discontinuation of study participation of the subject (TRTEMFL = ""Y"" and AECAUDIS = ""Y"") after sorting by USUBJID and AE start datetime (ASTDTM)",MT.ADAE.AOCC05FL,,TRUE,TRUE,Derived,,,
74,ADAE,Occurrence Flag Variables (Sponsor-defined),Char,Perm,AOCC06FL,1st Occur of Rel. and Lead to Disc. Flag,,text,1,,AOCC06FL,No Yes Response - Y,,,No,,"Set to ""Y"" for the first treatment-emergent and treatment-related AE leading to discontinuation of study participation of the subject (TRTEMFL = ""Y"", AEREL = ""RELATED"" and AECAUDIS = ""Y"") after sorting by USUBJID and AE start datetime (ASTDTM)",MT.ADAE.AOCC06FL,,TRUE,TRUE,Derived,,,
75,ADAE,Occurrence Flag Variables (Sponsor-defined),Char,Perm,AOCC07FL,1st Occurrence of Fatal TEAE Flag,,text,1,,AOCC07FL,No Yes Response - Y,,,No,,"Set to ""Y"" for the first fatal treatment-emergent AE  of the subject (TRTEMFL = ""Y"" and AEOUT = ""FATAL"") after sorting by USUBJID and AE start datetime (ASTDTM) ",MT.ADAE.AOCC07FL,,TRUE,TRUE,Derived,,,
76,ADAE,Occurrence Flag Variables (Sponsor-defined),Char,Perm,AOCC08FL,1st Occur of Fatal and Related TEAE Flag,,text,1,,AOCC08FL,No Yes Response - Y,,,No,,"Set to ""Y"" for the first fatal treatment-emergent AE related to study treatment of the subject (TRTEMFL = ""Y"", AEOUT = ""FATAL"" and AEREL = ""RELATED"") after sorting by USUBJD and AE start datetime (ASTDTM)",MT.ADAE.AOCC08FL,,TRUE,TRUE,Derived,,,
77,ADAE,Occurrence Flag Variables (Sponsor-defined),Char,Perm,AOCC09FL,1st Occurrence of Max Related TEAE Flag,,text,1,,AOCC09FL,No Yes Response - Y,,,No,,"Set to ""Y"" for the first treatment-emergent AE of the subject (TRTEMFL = ""Y"") after sorting by USUBJID, descending  relationship (AEREL), and AE start datetime (ASTDTC).",MT.ADAE.AOCC09FL,,TRUE,TRUE,Derived,,,Y
78,ADAE,Occurrence Flag Variables (Sponsor-defined),Char,Perm,AOCC10FL,1st Occur of Max Rel. Within SOC Flag,,text,1,,AOCC10FL,No Yes Response - Y,,,No,,"Set to ""Y"" for the first treatment emergent AE of the subject (TRTEMFL = ""Y"") within each body system or organ class (AEBODSYS) after sorting by USUBJID, AEBODSYS, descending relationship (AEREL), and AE start datetime (ASTDTM)",MT.ADAE.AOCC10FL,,TRUE,TRUE,Derived,,,Y
79,ADAE,Occurrence Flag Variables (Sponsor-defined),Char,Perm,AOCC11FL,1st Occur of Max Rel. Within PT Flag,,text,1,,AOCC11FL,No Yes Response - Y,,,No,,"Set to ""Y"" for the first treatment-emergent AE of the subject (TRTEMFL = ""Y"") within equal dictionary-derived terms (AEDECOD) after sorting by USUBJID, AEBODSYS, AEDECOD, descending AE relationshiü (AEREL), and AE start datetime (ASTDTM) ",MT.ADAE.AOCC11FL,,TRUE,TRUE,Derived,,,Y
83,ADAE,Descriptive Variables,Char,Req,AESER,Serious Event,,text,1,,AESER,No Yes Response - N/Y,,,Yes,,,,,TRUE,TRUE,Predecessor,AE.AESER,,N
84,ADAE,Descriptive Variables,Char,Perm,AESEV,Severity/Intensity,,text,8,,AESEV,AE Severity,,,No,,,,,TRUE,TRUE,Predecessor,AE.AESEV,,MILD@MODERATE
88,ADAE,Descriptive Variables,Char,Perm,AEREL,Causality,,text,11,,AEREL,AE Causality,,,No,,,,,TRUE,TRUE,Predecessor,AE.AEREL,,NOT RELATED
100,ADAE,Descriptive Variables,Char,Perm,AEACN,Action Taken with Study Treatment,,text,1,,AEACN,AE Action with Treatment,,,No,,,,,TRUE,TRUE,Predecessor,AE.AEACN,,NOT APPLICABLE@DOSE NOT CHANGED
101,ADAE,Descriptive Variables,Char,,AEOUT,Outcome of Adverse Event,,text,26,,AEOUT,AE Outcome,,,No,,,,,TRUE,TRUE,Predecessor,AE.AEOUT,,RECOVERED/RESOLVED@RECOVERING/RESOLVING@NOT RECOVERED/NOT RESOLVED
102,ADAE,Descriptive Variables,Char,,AECAUDIS,AE Caused Subject to Discontinue Study,,text,1,,AECAUDIS,No Yes Response - N/Y,,,No,,,,,TRUE,TRUE,Predecessor,AE.AECAUDIS,,N@Y
103,ADAE,Descriptive Variables,Char,,AECONTRT,Concomitant or Additional Trtmnt Given,,text,1,,AECONTRT,No Yes Response - N/Y,,,No,,,,,TRUE,TRUE,Predecessor,AE.AECONTRT,,N@Y
37,ADAE_not_used,Dictionary Coding Variables for MedDRA,Char,Cond,AESOC,Primary System Organ Class,,text,52,,AESOC,_PLEASE ADD DICTIONARY_,,,Yes,,,,,TRUE,,Predecessor,AE.AESOC,,PLEASE ADD DICTIONARY_@_PLEASE ADD DICTIONARY_
38,ADAE_not_used,Dictionary Coding Variables for MedDRA,Num,Perm,AESOCCD,Primary System Organ Class Code,,integer,8,,AESOCCD,_PLEASE ADD DICTIONARY_,,,No,,,,,TRUE,,Predecessor,AE.AESOCCD,,
41,ADAE_not_used,Timing Variables,Char,Cond,ASTDTF,Analysis Start Date Imputation Flag,,,,,,,,,,,,,,,,,,,
42,ADAE_not_used,Timing Variables,Char,Cond,ASTTMF,Analysis Start Time Imputation Flag,,,,,,,,,,,,,,,,,,,
46,ADAE_not_used,Timing Variables,Char,Cond,AENDTF,Analysis End Date Imputation Flag,,,,,,,,,,,,,,,,,,,
47,ADAE_not_used,Timing Variables,Char,Cond,AENTMF,Analysis End Time Imputation Flag,,,,,,,,,,,,,,,,,,,
48,ADAE_not_used,Timing Variables,Num,Cond,ASTDY,Analysis Start Relative Day,,,,,,,,,,,,,,,,,,,
50,ADAE_not_used,Timing Variables,Num,Perm,AENDY,Analysis End Relative Day,,,,,,,,,,,,,,,,,,,
54,ADAE_not_used,Timing Variables,Char,Perm,AEDUR,Duration of Adverse Event,,,,,,,,,,,,,,,,,,,
55,ADAE_not_used,Timing Variables,Num,Perm,APERIOD,Period,,,,,,,,,,,,,,,,,,,
56,ADAE_not_used,Timing Variables,Char,Perm,APERIODC,Period (C),,,,,,,,,,,,,,,,,,,
57,ADAE_not_used,Timing Variables,Char,Perm,APHASE,Phase,,,,,,,,,,,,,,,,,,,
60,ADAE_not_used,Indicator Variables,Char,Cond,ANLzzFL,Analysis Record Flag zz,,,,,,,,,,,,,,,,,,,
61,ADAE_not_used,Indicator Variables,Char,Cond,PREFL,Pre-treatment Flag,,,,,,,,,,,,,,,,,,,
62,ADAE_not_used,Indicator Variables,Char,Cond,FUPFL,Follow-up Flag,,,,,,,,,,,,,,,,,,,
79,ADAE_not_used,Treatment Variables,Num,Perm,DOSEAEON,Study Drug Dose at AE Onset,,,,,,,,,,,,,,,,,,,
80,ADAE_not_used,Treatment Variables,Char,Cond,DOSAEONU,Study Drug Dose at AE Onset Units,,,,,,,,,,,,,,,,,,,
81,ADAE_not_used,Treatment Variables,Num,Perm,DOSECUM,Cumulative Study Drug Dose,,,,,,,,,,,,,,,,,,,
82,ADAE_not_used,Treatment Variables,Char,Cond,DOSECUMU,Cumulative Study Drug Dose Units,,,,,,,,,,,,,,,,,,,
85,ADAE_not_used,Descriptive Variables,Char,Perm,ASEV,Analysis Severity/Intensity,,,,,,,,,,,,,,,,,,,
86,ADAE_not_used,Descriptive Variables,Char,Perm,SEVGRy,Pooled Severity Group y,,,,,,,,,,,,,,,,,,,
87,ADAE_not_used,Descriptive Variables,Num,Perm,SEVGRyN,Pooled Severity Group y (N),,,,,,,,,,,,,,,,,,,
89,ADAE_not_used,Descriptive Variables,Num,Perm,AERELN,Causality (N),,,,,,,,,,,,,,,,,,,
90,ADAE_not_used,Descriptive Variables,Char,Perm,AREL,Analysis Causality,,,,,,,,,,,,,,,,,,,
91,ADAE_not_used,Descriptive Variables,Num,Perm,ARELN,Analysis Causality (N),,,,,,,,,,,,,,,,,,,
92,ADAE_not_used,Descriptive Variables,Char,Perm,RELGRy,Pooled Causality Group y,,,,,,,,,,,,,,,,,,,
93,ADAE_not_used,Descriptive Variables,Num,Perm,RELGRyN,Pooled Causality Group y (N),,,,,,,,,,,,,,,,,,,
94,ADAE_not_used,Descriptive Variables,Char,Perm,AETOXGR,Standard Toxicity Grade,,,,,,,,,,,,,,,,,,,
95,ADAE_not_used,Descriptive Variables,Num,Perm,AETOXGRN,Standard Toxicity Grade (N),,,,,,,,,,,,,,,,,,,
96,ADAE_not_used,Descriptive Variables,Char,Perm,ATOXGR,Analysis Toxicity Grade,,,,,,,,,,,,,,,,,,,
97,ADAE_not_used,Descriptive Variables,Num,Perm,ATOXGRN,Analysis Toxicity Grade (N),,,,,,,,,,,,,,,,,,,
98,ADAE_not_used,Descriptive Variables,Char,Perm,TOXGGRy,Pooled Toxicity Grade Group y,,,,,,,,,,,,,,,,,,,
99,ADAE_not_used,Descriptive Variables,Num,Perm,TOXGGRyN,Pooled Toxicity Grade y (N),,,,,,,,,,,,,,,,,,,
101,ADAE_not_used,Standardized MedDRA Query Variables,Char,Cond,SMQzzNAM,SMQ zz Name,,,,,,,,,,,,,,,,,,,
102,ADAE_not_used,Standardized MedDRA Query Variables,Num,Perm,SMQzzCD,SMQ zz Code,,,,,,,,,,,,,,,,,,,
103,ADAE_not_used,Standardized MedDRA Query Variables,Char,Cond,CQzzNAM,Customized Query zz Name,,,,,,,,,,,,,,,,,,,
104,ADAE_not_used,Original or Prior MedDRA Coding Variables,Char,Perm,DECDORGy,PT in Original Dictionary y,,,,,,,,,,,,,,,,,,,
105,ADAE_not_used,Original or Prior MedDRA Coding Variables,Char,Perm,BDSYORGy,SOC in Original Dictionary y,,,,,,,,,,,,,,,,,,,
106,ADAE_not_used,Original or Prior MedDRA Coding Variables,Char,Perm,HLGTORGy,HLGT in Original Dictionary y,,,,,,,,,,,,,,,,,,,
107,ADAE_not_used,Original or Prior MedDRA Coding Variables,Char,Perm,HLTORGy,HLT in Original Dictionary y,,,,,,,,,,,,,,,,,,,
108,ADAE_not_used,Original or Prior MedDRA Coding Variables,Char,Perm,LLTORGy,LLT in Original Dictionary y,,,,,,,,,,,,,,,,,,,
109,ADAE_not_used,Original or Prior MedDRA Coding Variables,Char,Perm,LLTNORGy,LLT Code in Original Dictionary y,,,,,,,,,,,,,,,,,,,
110,ADAE_not_used,Descriptive Variables,Char,Perm,AESEVN,Severity/Intensity (N),,,,,,,,,,,,,,,,,,,
111,ADAE_not_used,Descriptive Variables,Char,Perm,ASEVN,Analysis Severity/Intensity (N),,,,,,,,,,,,,,,,,,,
112,ADAE_not_used,Standardized MedDRA Query Variables,Char,Cond,SMQzzSC,SMQ zz Scope,,,,,,,,,,,,,,,,,,,
113,ADAE_not_used,Standardized MedDRA Query Variables,Char,Perm,SMQzzSCN,SMQ zz Scope (N),,,,,,,,,,,,,,,,,,,
1,ADEG,Identifier Variables for BDS Datasets,Char,Req,STUDYID,Study Identifier,,text,11,,STUDYID,Study Identifier,,,Yes,,,,,,,Predecessor,ADSL.STUDYID,,
2,ADEG,Identifier Variables for BDS Datasets,Char,Req,USUBJID,Unique Subject Identifier,,text,18,,USUBJID,,,,Yes,,,,,,,Predecessor,ADSL.USUBJID,,
3,ADEG,ADSL Identifier Variables,Char,Req,SUBJID,Subject Identifier for the Study,,text,3,,SUBJID,,,,No,,,,,,,Predecessor,ADSL.SUBJID,,
4,ADEG,Identifier Variables for BDS Datasets,Char,Perm,SITEID,Study Site Identifier,,text,2,,SITEID,Study Site Identifier,,,No,,,,,,,Predecessor,ADSL.SITEID,,
5,ADEG,ADSL Subject Demographics Variables,Num,Req,AGE,Age,,integer,2,,AGE,,,,No,,,,,,,Predecessor,ADSL.AGE,,
6,ADEG,ADSL Subject Demographics Variables,Char,Req,AGEU,Age Units,,text,5,,AGEU,Age Units,,,No,,,,,,,Predecessor,ADSL.AGEU,,YEARS
7,ADEG,ADSL Subject Demographics Variables,Char,Req,SEX,Sex,,text,1,,SEX,Sex,,,No,,,,,,,Predecessor,ADSL.SEX,,M@F
8,ADEG,ADSL Subject Demographics Variables,Char,Req,RACE,Race,,text,41,,RACE,Race,,,No,,,,,,,Predecessor,ADSL.RACE,,WHITE@BLACK OR AFRICAN AMERICAN@OTHER@ASIAN
9,ADEG,ADSL Population Indicator Variables,Char,Cond,SAFFL,Safety Population Flag,,text,1,,SAFFL,No Yes Response - N/Y,,,Yes,,,,,,,Predecessor,ADSL.SAFFL,,Y
10,ADEG,ADSL Population Indicator Variables (Sponsor-Defined),Char,,PKFL,Pharmacokinetic Analysis Population Flag,,text,1,,PKFL,No Yes Response - N/Y,,,No,,,,,,,Predecessor,ADSL.PKFL,,Y
11,ADEG,Treatment Timing Variables for BDS (Taken from ADSL),Num,,TRTSDT,Date of First Exposure to Treatment,,integer,5,,TRTSDT,,YYMMDD10.,,No,,,,,,,Predecessor,ADSL.TRTSDT,,
12,ADEG,Treatment Timing Variables for BDS (Taken from ADSL),Num,,TRTSTM,Time of First Exposure to Treatment,,integer,5,,TRTSTM,,TIME5.,,No,,,,,,,Predecessor,ADSL.TRTSTM,,
13,ADEG,Treatment Timing Variables for BDS (Taken from ADSL),Num,,TRTSDTM,Datetime of First Exposure to Treatment,,integer,10,,TRTSDTM,,E8601DT16.,,No,,,,,,,Predecessor,ADSL.TRTSDTM,,
14,ADEG,Treatment Timing Variables for BDS (Taken from ADSL),Num,,TRTEDT,Date of Last Exposure to Treatment,,integer,5,,TRTEDT,,YYMMDD10.,,No,,,,,,,Predecessor,ADSL.TRTEDT,,
15,ADEG,Treatment Timing Variables for BDS (Taken from ADSL),Num,,TRTETM,Time of Last Exposure to Treatment,,integer,5,,TRTETM,,TIME5.,,No,,,,,,,Predecessor,ADSL.TRTETM,,
16,ADEG,Treatment Timing Variables for BDS (Taken from ADSL),Num,,TRTEDTM,Datetime of Last Exposure to Treatment,,integer,10,,TRTEDTM,,E8601DT16.,,No,,,,,,,Predecessor,ADSL.TRTEDTM,,
17,ADEG,Record-Level Treatment Variables for BDS Datasets ,Char,Cond,TRTP,Planned Treatment,,text,30,,TRTP,Planned/Actual Treatment ,,,No,,,,,,,Predecessor,ADSL.TRT01P,,Placebo@0.15 mg MEDI0618 (intravenous)@0.45 mg MEDI0618 (intravenous)@1.35 mg MEDI0618 (intravenous)@4 mg MEDI0618 (intravenous)@12 mg MEDI0618 (intravenous)@40 mg MEDI0618 (intravenous)@100 mg MEDI0618 (intravenous)@200 mg MEDI0618 (intravenous)@100 mg MEDI0618 (subcutaneous)
18,ADEG,Record-Level Treatment Variables for BDS Datasets (Sponsor-Defined),Char,,TRTPG1,Planned Pooled Treatment 1,,text,8,,TRTPG1,Planned/Actual Pooled Treatment,,,No,,,,,,,Predecessor,ADSL.TRT01PG1,,Placebo@MEDI0618
19,ADEG,Record-Level Treatment Variables for BDS Datasets ,Char,,TRTA,Actual Treatment,,text,30,,TRTA,Planned/Actual Treatment ,,,No,,,,,,,Predecessor,ADSL.TRT01A,,Placebo@0.15 mg MEDI0618 (intravenous)@0.45 mg MEDI0618 (intravenous)@1.35 mg MEDI0618 (intravenous)@4 mg MEDI0618 (intravenous)@12 mg MEDI0618 (intravenous)@40 mg MEDI0618 (intravenous)@80 mg MEDI0618 (intravenous)@200 mg MEDI0618 (intravenous)@100 mg MEDI0618 (subcutaneous)
20,ADEG,Record-Level Treatment Variables for BDS Datasets (Sponsor-Defined),Char,,TRTAG1,Actual Pooled Treatment 1,,text,8,,TRTAG1,Planned/Actual Pooled Treatment,,,No,,,,,,,Predecessor,ADSL.TRT01AG1,,Placebo@MEDI0618
21,ADEG,Grouping Variables for BDS (Sponsor-Defined),Char,,COHORT,Cohort ,,text,23,,COHORT,Cohort,,,No,,,,,,,Predecessor,ADSL.COHORT,,COHORT 1 (INTRAVENOUS)@COHORT 2 (INTRAVENOUS)@COHORT 3 (INTRAVENOUS)@COHORT 4 (INTRAVENOUS)@COHORT 5 (INTRAVENOUS)@COHORT 6 (INTRAVENOUS)@COHORT 7 (INTRAVENOUS)@COHORT 8 (INTRAVENOUS)@COHORT 9 (SUBCUTANEOUS)
22,ADEG,Grouping Variables for BDS (Sponsor-Defined),Char,,COHORTG1,Pooled Cohort Group 1,,text,24,,COHORTG1,Pooled Cohort Group 1,,,No,,,,,,,Predecessor,ADSL.COHORTG1,,COHORT 1 (INTRAVENOUS)@COHORT 2 (INTRAVENOUS)@COHORT 3 (INTRAVENOUS)@COHORT 4 (INTRAVENOUS)@COHORT 5-8 (INTRAVENOUS)@COHORT 9 (SUBCUTANEOUS)
23,ADEG,Grouping Variables for BDS (Sponsor-Defined),Char,,COHORTG2,Pooled Cohort Group 2,,text,24,,COHORTG2,Pooled Cohort Group 2,,,No,,,,,,,Predecessor,ADSL.COHORTG2,,COHORT 1-8 (INTRAVENOUS)
24,ADEG,Sponsor-defined,Char,,ADAPOSFL,ADA Positive at any Visit,,text,1,,ADAPOSFL,No Yes Response - N/Y,,,No,,,,,,,Predecessor,ADSL.ADAPOSFL,,N@Y
25,ADEG,Identifier Variables for BDS Datasets,Num,Perm,ASEQ,Analysis Sequence Number,,integer,3,,ASEQ,,,,No,,,,,,,Assigned,,,
26,ADEG,Timing Variables for BDS Datasets,Num,Perm,ADT,Analysis Date,,integer,5,,ADT,,YYMMDD10.,,No,,Date part of EG.EGDTC converted to numeric SAS date,MT.ADEG.ADT,,,,Derived,,,
27,ADEG,Timing Variables for BDS Datasets,Num,Perm,ATM,Analysis Time,,integer,5,,ATM,,TIME5.,,No,,Time part of EG.EGDTC converted to numeric SAS time,MT.ADEG.ATM,,,,Derived,,,
28,ADEG,Timing Variables for BDS Datasets,Num,Perm,ADTM,Analysis Datetime,,integer,10,,ADTM,,E8601DT16.,,No,,EG.EGDTC converted to numeric SAS date,MT.ADEG.ADTM,,,,Derived,,,
29,ADEG,Timing Variables for BDS Datasets,Num,Perm,ADY,Analysis Relative Day ,,integer,2,,ADY,,,,No,,If ADT >= TRTSDT then ADY = ADT - TRTSDT + 1. Else if ADT<TRTSDT then ADY = ADT - TRTSDT,MT.ADEG.ADY,,,,Derived,,,
30,ADEG,Timing Variables for BDS Datasets,Char,Cond,AVISIT,Analysis Visit ,,text,21,,AVISIT,Analysis Visit - ADEG,,,No,,"If ADTM <= TRTSDTM then AVISIT = ""Baseline"". Else if EG.VISIT=""TREATMENT"" then AVISIT = ""Treatment"". Else AVISIT = ""DAY XX"" with XX being the prescribed study day of EG.VISIT",MT.ADEG.AVISIT,,,,Derived,,,Baseline@Treatment@Day 8@Post-Baseline Maximum@Day 15@Day 29@Day 57@Day 85
31,ADEG,Timing Variables for BDS Datasets,Num,Perm,AVISITN,Analysis Visit (N),,integer,3,,AVISITN,Analysis Visit (N) - ADEG,,,No,Numeric code for AVISITN,,,,,,Assigned,,,
32,ADEG,Timing Variables for BDS Datasets,Char,Cond,ATPT,Analysis Timepoint,,text,8,,ATPT,Analysis Timepoint - ADEG,,,Yes,,"If VISITNUM=1 then ATPT = ""Pre-dose"". Else if EG.EGTPT=""60 MIN"" then ATPT = ""1 hour"". Else if EG.EGTPT ^= MISSING then ATPT = lowcase(EG.EGTPT). ",MT.ADEG.ATPT,,,,Derived,,,Pre-dose@30 min@1 hour@2 hours@4 hours@8 hours@12 hours@24 hours@48 hours
33,ADEG,Timing Variables for BDS Datasets,Num,Perm,ATPTN,Analysis Timepoint (N),,integer,5,,ATPTN,Analysis Timepoint (N) - ADEG,,,No,Numeric code for ATPT,,,,,,Assigned,,,
34,ADEG,Timing Variables for BDS Datasets,Char,Perm,ATPTREF,Analysis Timepoint Reference,,text,17,,ATPTREF,Analysis Timepoint Reference,,,No,,"If EG.EGTPTREF=""START OF EXPOSURE TO STUDY DRUG"" or VISITNUM=1  then ATPTREF = ""Start of exposure"". Else if EG.EGTPTREF=""END OF EXPOSURE TO STUDY DRUG"" then ATPTREF = ""End of exposure""",MT.ADEG.ATPTREF,,,,Derived,,,Start of exposure@End of exposure
35,ADEG,Timing Variables for BDS Datasets (Sponsor-Defined),Num,,ARFTDTM,Anchor Timepoint for Analysis Rel. Time,,integer,10,,ARFTDTM,,E8601DT16.,,No,,"If EG.EGTPTREF=""START OF TREATMENT"" or VISITNUM=1 then ARFTDTM = TRTSDTM. Else if EG.EGTPTREF=""END OF TREATMENT"" then ARFTDTM = TRTEDTM",MT.ADEG.ARFTDTM,,,,Derived,,,
36,ADEG,Timing Variables for BDS Datasets,Num,Perm,ARELTM,Analysis Relative Time,,integer,5,,ARELTM,,TIME5.,,No,,ARELTM = ADTM - ARFTDTM,MT.ADEG.ARELTM,,,,Derived,,,
37,ADEG,Timing Variables for BDS Datasets,Char,Perm,ARELTMU,Analysis Relative Time Unit,,text,5,,ARELTMU,Analysis Relative Time Unit,,,No,HH:MM,,,,,,Assigned,,,HH:MM
38,ADEG,Analysis Parameter Variables for BDS Datasets,Char,Req,PARAM,Parameter ,,text,54,,PARAM,Parameters - ADEG,,,Yes,Concatenation of EG.EGTEST and EG.EGSTRESU,,,,,,Assigned,,,"PR Interval, Aggregate (msec)@QRS Duration, Aggregate (msec)@RR Interval, Aggregate (msec)@QT Interval, Aggregate (msec)@Heart rate (bpm)@PR Interval - Mean of Triplicates (msec)@QRS Interval - Mean of Triplicates (msec)@RR Interval - Mean of Triplicates (msec)@QT Interval - Mean of Triplicates (msec)@QTcF – Fridericia's Correction Formula (ms)"
39,ADEG,Analysis Parameter Variables for BDS Datasets,Char,Req,PARAMCD,Parameter Code,,text,7,,PARAMCD,Parameter Code - ADEG,,,Yes,EG.EGTESTCD,,,,,,Assigned,,,PRAG@QRSAG@RRAG@QTAG@HR@PRMEAN@QRSMEAN@RRMEAN@QTMEAN@QTCF
40,ADEG,Analysis Parameter Variables for BDS Datasets,Num,Perm,PARAMN,Parameter (N),,integer,2,,PARAMN,Parameter (N) - ADEG,,,No,,,,,,,Assigned,,,
41,ADEG,Analysis Parameter Variables for BDS Datasets,Char,Perm,PARCAT1,Parameter Category 1,,text,22,,PARCAT1,Parameter Category 1 - ADEG,,,No,,,,,,,Assigned,,,TRACEABILITY PARAMETER@ANALYSIS PARAMETER
42,ADEG,Analysis Parameter Variables for BDS Datasets,Char,Perm,PARAMTYP,Parameter Type,,text,7,,PARAMTYP,Parameter Type ,,,No,,,,,,,Assigned,,,DERIVED
43,ADEG,Analysis Parameter Variables for BDS Datasets,Num,Cond,AVAL,Analysis Value,,float,12,9,AVAL,,6.1,,No,,,MT.ADEG.AVAL,,,,Derived,,,
45,ADEG,Analysis Parameter Variables for BDS Datasets,Char,Perm,AVALCAT1,Analysis Value Category 1,,text,22,,AVALCAT1,Analysis Value Category 1 - ADEG,,,No,,,MT.ADEG.AVALCAT1,,,,Derived,,,<50 bpm@>=50 and <=100 bpm@<=220 ms@<=115 ms@<=450 ms@>450 and <=480 ms
46,ADEG,Analysis Parameter Variables for BDS Datasets,Char,Perm,AVALCAT2,Analysis Value Category 2,,text,21,,AVALCAT2,Analysis Value Category 2 - ADEG,,,No,,,MT.ADEG.AVALCAT2,,,,Derived,,,>=110 and <=220 ms@>=75 and <=115 ms@<110 ms@<75 ms
47,ADEG,Analysis Parameter Variables for BDS Datasets,Num,Cond,BASE,Baseline Value,,float,12,9,BASE,,6.1,,No,,"If AVISIT ne ""BASELINE"" or ABLFL=""Y"" then BASE = AVAL of the record with ABLFL=""Y"" within the subject and parameter",MT.ADEG.BASE,,,,Derived,,,
48,ADEG,Analysis Parameter Variables for BDS Datasets,Num,Perm,CHG,Change from Baseline,,float,12,10,CHG,,6.1,,No,,AVAL - BASE,MT.ADEG.CHG,,,,Derived,,,
49,ADEG,Analysis Parameter Variables for BDS Datasets,Char,Perm,CHGCAT1,Change from Baseline Category 1,,text,18,,CHGCAT1,Change from Baseline Category 1 - ADEG,,,No,,,MT.ADEG.CHGCAT1,,,,Derived,,,<=30 ms@>30 and <=60 ms
50,ADEG,Toxicity and Range Variables for BDS Datasets,Char,Perm,ANRIND,Analysis Reference Range Indicator,,text,6,,ANRIND,Reference Range Indicator,,,No,,"If ANRLO <= AVAL <=ANRHI then ANRIND = ""Normal"". Else if AVAL < ANRLO then ANRIND = ""Low"". Else if AVAL > ANRHI then ANRIND = ""High""",MT.ADEG.ANRIND,,,,Derived,,,LOW@NORMAL@HIGH
51,ADEG,Toxicity and Range Variables for BDS Datasets,Num,Perm,ANRLO,Analysis Normal Range Lower Limit,,integer,3,,ANRLO,,,,No,See SAP section XX,,,,,,Assigned,,,
52,ADEG,Toxicity and Range Variables for BDS Datasets,Num,Perm,ANRHI,Analysis Normal Range Upper Limit,,integer,4,,ANRHI,Reference Range Indicator PCI - ADEG,,,No,See SAP section YY,,,,,,Assigned,,,
53,ADEG,Toxicity and Range Variables for BDS Datasets,Char,Perm,A1IND,Analysis Range 1 Indicator,,text,10,,A1IND,,,,No,,,MT.ADEG.A1IND,,,,Derived,,,NOT PCI@PCI - LOW@PCI - HIGH
54,ADEG,Toxicity and Range Variables for BDS Datasets,Num,Cond,A1LO,Analysis Range 1 Lower Limit,,integer,3,,A1LO,,,,No,,,,,,,Assigned,,,
55,ADEG,Toxicity and Range Variables for BDS Datasets,Num,Cond,A1HI,Analysis Range 1 Upper Limit,,integer,4,,A1HI,,,,No,,,,,,,Assigned,,,
56,ADEG,Toxicity and Range Variables for BDS Datasets,Char,Perm,A2IND,Analysis Range 2 Indicator,,text,7,,A2IND,Reference Range Indicator PCI - ADEG,,,No,,,MT.ADEG.A2IND,,,,Derived,,,NOT PCI
57,ADEG,Toxicity and Range Variables for BDS Datasets,Num,Cond,A2LO,Analysis Range 2 Lower Limit,,integer,3,,A2LO,,,,No,,,,,,,Assigned,,,
58,ADEG,Toxicity and Range Variables for BDS Datasets,Num,Cond,A2HI,Analysis Range 2 Upper Limit,,integer,3,,A2HI,,,,No,,,,,,,Assigned,,,
59,ADEG,Flag Variables for BDS Datasets,Char,Cond,ABLFL,Baseline Record Flag,,text,1,,ABLFL,No Yes Response - Y,,,No,,"Set to ""Y"" for the record with AVISIT=""Baseline"" and ARELTM closest to 0 within the subject and parameter",MT.ADEG.ABLFL,,,,Derived,,,Y
60,ADEG,Analysis Criterion y,Char,Perm,CRIT1,Analysis Criterion 1,,text,38,,CRIT1,Analysis Criterion 1 - ADEG,,,No,,,,,,,Assigned,,,PCI increase (>60 msec)@PCI increase (>30 msec)@PCI increase (>60 ms)
61,ADEG,Criterion y Evaluation Result Flag,Char,Cond,CRIT1FL,Criterion 1 Evaluation Result Flag,,text,1,,CRIT1FL,No Yes Response - Y,,,No,,,MT.ADEG.CRIT1FL,,,,Derived,,,N
62,ADEG,Analysis Criterion y,Char,Perm,CRIT2,Analysis Criterion 2,,text,23,,CRIT2,Analysis Criterion 2 - ADEG,,,No,,,,,,,Assigned,,,PCI value (outside AZ extended range)@PCI value (outside AZ extended range or PCI increase)
63,ADEG,Criterion y Evaluation Result Flag,Char,Cond,CRIT2FL,Criterion 2 Evaluation Result Flag,,text,1,,CRIT2FL,No Yes Response - Y,,,No,,,MT.ADEG.CRIT2FL,,,,Derived,,,N
64,ADEG,Analysis Criterion y,Char,Perm,CRIT3,Analysis Criterion 3,,text,53,,CRIT3,Analysis Criterion 3 - ADEG,,,No,,,,,,,Assigned,,,Treatment-emergent increase (>40 msec)@Treatment-emergent increase (>15 msec)@Treatment-emergent increase (>30 msec)@Treatment-emergent increase (>30 ms)
65,ADEG,Criterion y Evaluation Result Flag,Char,Cond,CRIT3FL,Criterion 3 Evaluation Result Flag,,text,1,,CRIT3FL,No Yes Response - Y,,,No,,,MT.ADEG.CRIT3FL,,,,Derived,,,N@Y
66,ADEG,Analysis Parameter Criteria Variables for BDS Datasets,Char,Perm,MCRIT1,Analysis Multi-Response Criterion 1,,text,46,,MCRIT1,Analysis Multi-Response Criterion 1 - ADEG,,,No,,,,,,,Assigned,,,Post-baseline value and increase from baseline
67,ADEG,Analysis Parameter Criteria Variables for BDS Datasets,Char,Cond,MCRIT1ML,Multi-Response Criterion 1 Evaluation,,text,28,,MCRIT1ML,Multi-Response Criterion 1 Evaluation - ADEG,,,No,,,MT.ADEG.MCRIT1ML,,,,Derived,,,<=450 ms or increase <=30 ms
68,ADEG,Analysis Descriptor Variables for BDS Datasets,Char,Cond,DTYPE,Derivation Type,,text,7,,DTYPE,Derivation Type - ADEG,,,No,,"Set to ""MAXIMUM"" if AVISIT = ""Maximum post-baseline value""",,,,,Assigned,,,MAXIMUM
70,ADEG,Datapoint Traceability Variables,Char,Perm,SRCDOM,Source Data,,text,4,,SRCDOM,Source Data - ADEG,,,No,,,,,,,Assigned,,,EG@ADEQ
72,ADEG,Datapoint Traceability Variables,Char,Perm,SRCVAR,Source Variable,,text,8,,SRCVAR,Source Variable - ADEG,,,No,,,,,,,Assigned,,,EGSTRESN@AVAL
71,ADEG,Datapoint Traceability Variables,Num,Perm,SRCSEQ,Source Sequence Number,,integer,3,,SRCSEQ,,,,No,,,MT.ADEQ.SRCSEQ,,,,Derived,,,
73,ADEG,SDTM Variable for Traceability,Char,,VISIT,Visit Name,,text,18,,VISIT,,,,No,,,,,,,Predecessor,EG.VISIT,,TREATMENT@FINAL VISIT DAY 8@FOLLOW-UP DAY 8@FINAL VISIT DAY 15@FINAL VISIT DAY 29@FOLLOW-UP DAY 29@FINAL VISIT DAY 57@FINAL VISIT DAY 85
74,ADEG,SDTM Variable for Traceability,Num,,VISITNUM,Visit Number,,float,3,1,VISITNUM,,,,No,,,,,,,Predecessor,EG.VISITNUM,,
69,ADEG_not_used,Flag Variables for BDS Datasets,Char,Cond,ANL01FL,Analysis Flag 01,,text,1,,ANL01FL,No Yes Response - Y subset,,,No,,"If AVISIT NE ""BASELINE"" then ANL01FL=""Y"". Else if AVISIT=""BASELINE"" then ANL01FL is set to ""Y"" for the record with ARELTM1 closest to 0 within the subject and parameter",MT.ADEG.ANL01FL,,TRUE,,Derived,,,Y
1,ADINJREC,Identifier Variables for BDS Datasets,Char,Req,STUDYID,Study Identifier,,text,11,,STUDYID,Study Identifier,,,Yes,,,,,TRUE,,Predecessor,ADSL.STUDYID,,
2,ADINJREC,Identifier Variables for BDS Datasets,Char,Req,USUBJID,Unique Subject Identifier,,text,18,,USUBJID,,,,Yes,,,,,TRUE,,Predecessor,ADSL.USUBJID,,
3,ADINJREC,ADSL Identifier Variables,Char,Req,SUBJID,Subject Identifier for the Study,,text,3,,SUBJID,,,,No,,,,,TRUE,,Predecessor,ADSL.SUBJID,,
4,ADINJREC,Identifier Variables for BDS Datasets,Char,Perm,SITEID,Study Site Identifier,,text,2,,SITEID,Study Site Identifier,,,No,,,,,,,Predecessor,ADSL.SITEID,,
5,ADINJREC,ADSL Subject Demographics Variables,Num,Req,AGE,Age,,integer,2,,AGE,,,,No,,,,,,,Predecessor,ADSL.AGE,,
6,ADINJREC,ADSL Subject Demographics Variables,Char,Req,AGEU,Age Units,,text,5,,AGEU,Age Units,,,No,,,,,,,Predecessor,ADSL.AGEU,,YEARS
7,ADINJREC,ADSL Subject Demographics Variables,Char,Req,SEX,Sex,,text,1,,SEX,Sex,,,No,,,,,,,Predecessor,ADSL.SEX,,M@F
8,ADINJREC,ADSL Subject Demographics Variables,Char,Req,RACE,Race,,text,41,,RACE,Race,,,No,,,,,,,Predecessor,ADSL.RACE,,WHITE@BLACK OR AFRICAN AMERICAN@OTHER@ASIAN
9,ADINJREC,ADSL Population Indicator Variables,Char,Cond,SAFFL,Safety Population Flag,,text,1,,SAFFL,No Yes Response - N/Y,,,Yes,,,,,,,Predecessor,ADSL.SAFFL,,Y@N
10,ADINJREC,ADSL Population Indicator Variables (Sponsor-Defined),Char,,PKFL,Pharmacokinetic Analysis Population Flag,,text,1,,PKFL,No Yes Response - N/Y,,,No,,,,,,,Predecessor,ADSL.PKFL,,Y
11,ADINJREC,Treatment Timing Variables for BDS (Taken from ADSL),Num,,TRTSDT,Date of First Exposure to Treatment,,integer,5,,TRTSDT,,YYMMDD10.,,No,,,,,,,Predecessor,ADSL.TRTSDT,,
12,ADINJREC,Treatment Timing Variables for BDS (Taken from ADSL),Num,,TRTSTM,Time of First Exposure to Treatment,,integer,5,,TRTSTM,,TIME5.,,No,,,,,,,Predecessor,ADSL.TRTSTM,,
13,ADINJREC,Treatment Timing Variables for BDS (Taken from ADSL),Num,,TRTSDTM,Datetime of First Exposure to Treatment,,integer,10,,TRTSDTM,,E8601DT16.,,No,,,,,,,Predecessor,ADSL.TRTSDTM,,
14,ADINJREC,Treatment Timing Variables for BDS (Taken from ADSL),Num,,TRTEDT,Date of Last Exposure to Treatment,,integer,5,,TRTEDT,,YYMMDD10.,,No,,,,,,,Predecessor,ADSL.TRTEDT,,
15,ADINJREC,Treatment Timing Variables for BDS (Taken from ADSL),Num,,TRTETM,Time of Last Exposure to Treatment,,integer,5,,TRTETM,,TIME5.,,No,,,,,,,Predecessor,ADSL.TRTETM,,
16,ADINJREC,Treatment Timing Variables for BDS (Taken from ADSL),Num,,TRTEDTM,Datetime of Last Exposure to Treatment,,integer,10,,TRTEDTM,,E8601DT16.,,No,,,,,,,Predecessor,ADSL.TRTEDTM,,
17,ADINJREC,Record-Level Treatment Variables for BDS Datasets ,Char,Cond,TRTP,Planned Treatment,,text,30,,TRTP,Planned/Actual Treatment ,,,No,,,,,,,Predecessor,ADSL.TRT01P,,Placebo@0.15 mg MEDI0618 (intravenous)@0.45 mg MEDI0618 (intravenous)@1.35 mg MEDI0618 (intravenous)@4 mg MEDI0618 (intravenous)@12 mg MEDI0618 (intravenous)@40 mg MEDI0618 (intravenous)@100 mg MEDI0618 (intravenous)@200 mg MEDI0618 (intravenous)@100 mg MEDI0618 (subcutaneous)@IV 0.45 mg MEDI0618@IV 1.35 mg MEDI0618@IV 4 mg MEDI0618@IV 12 mg MEDI0618@IV 40 mg MEDI0618@IV 100 mg MEDI0618@IV 200 mg MEDI0618
18,ADINJREC,Record-Level Treatment Variables for BDS Datasets (Sponsor-Defined),Char,,TRTPG1,Planned Pooled Treatment 1,,text,8,,TRTPG1,Planned/Actual Pooled Treatment,,,No,,,,,,,Predecessor,ADSL.TRT01PG1,,Placebo@MEDI0618
19,ADINJREC,Record-Level Treatment Variables for BDS Datasets ,Char,,TRTA,Actual Treatment,,text,30,,TRTA,Planned/Actual Treatment ,,,No,,,,,,,Predecessor,ADSL.TRT01A,,Placebo@0.15 mg MEDI0618 (intravenous)@0.45 mg MEDI0618 (intravenous)@1.35 mg MEDI0618 (intravenous)@4 mg MEDI0618 (intravenous)@12 mg MEDI0618 (intravenous)@40 mg MEDI0618 (intravenous)@80 mg MEDI0618 (intravenous)@200 mg MEDI0618 (intravenous)@100 mg MEDI0618 (subcutaneous)
20,ADINJREC,Record-Level Treatment Variables for BDS Datasets (Sponsor-Defined),Char,,TRTAG1,Actual Pooled Treatment 1,,text,8,,TRTAG1,Planned/Actual Pooled Treatment,,,No,,,,,,,Predecessor,ADSL.TRT01AG1,,Placebo@MEDI0618
21,ADINJREC,Grouping Variables for BDS (Sponsor-Defined),Char,,COHORT,Cohort ,,text,23,,COHORT,Cohort,,,No,,,,,,,Predecessor,ADSL.COHORT,,COHORT 1 (INTRAVENOUS)@COHORT 2 (INTRAVENOUS)@COHORT 3 (INTRAVENOUS)@COHORT 4 (INTRAVENOUS)@COHORT 5 (INTRAVENOUS)@COHORT 6 (INTRAVENOUS)@COHORT 7 (INTRAVENOUS)@COHORT 8 (INTRAVENOUS)@COHORT 9 (SUBCUTANEOUS)@COHORT2@COHORT3@COHORT4@COHORT5@COHORT6@COHORT7@COHORT8
22,ADINJREC,Grouping Variables for BDS (Sponsor-Defined),Char,,COHORTG1,Pooled Cohort Group 1,,text,24,,COHORTG1,Pooled Cohort Group 1,,,No,,,,,,,Predecessor,ADSL.COHORTG1,,COHORT 1 (INTRAVENOUS)@COHORT 2 (INTRAVENOUS)@COHORT 3 (INTRAVENOUS)@COHORT 4 (INTRAVENOUS)@COHORT 5-8 (INTRAVENOUS)@COHORT 9 (SUBCUTANEOUS)@COHORT2@COHORT3@COHORT4@COHORT 5-8
23,ADINJREC,Grouping Variables for BDS (Sponsor-Defined),Char,,COHORTG2,Pooled Cohort Group 2,,text,24,,COHORTG2,Pooled Cohort Group 2,,,No,,,,,,,Predecessor,ADSL.COHORTG2,,COHORT 1-8 (INTRAVENOUS)@COHORT 1-8
43,ADINJREC,Timing Variables for BDS Datasets,Char,Cond,AVISIT,Analysis Visit ,,text,9,,AVISIT,Analysis Visit - ADINJREC,,,No,,,,,,,Derived,,,Baseline@Treatment@Day 8@ENDPOINT@Day 15@Day 22@Day 29@Day 43@Day 57@Day 71@Day 85@Unscheduled 99.00@Unscheduled 2.01
104,ADINJREC,Analysis Parameter Variables for BDS Datasets,Char,Req,PARAM,Parameter ,,text,31,,PARAM,Parameter - ADINJREC,,,Yes,,,,,,,Assigned,,,Any Injection Site Reaction@Type of Injection Site Reaction@Diastolic Blood Pressure (mmHg)@Pulse Rate (beats/min)@Respiratory Rate (breaths/min)@Systolic Blood Pressure (mmHg)@Temperature (C)
105,ADINJREC,Analysis Parameter Variables for BDS Datasets,Char,Req,PARAMCD,Parameter Code,,text,8,,PARAMCD,Parameter Code - ADINJREC,,,Yes,,,,,,,Assigned,,,ANYINJRC@TPINJREC@DIABP@PULSE@RESP@SYSBP@TEMP
110,ADINJREC,Analysis Parameter Variables for BDS Datasets,Char,Cond,AVALC,Analysis Value (C),,text,8,,AVALC,Analysis Value (C) - ADINJREC,,,No,,,,,,,,,,N@Y@BLEEDING
116,ADINJREC,Datapoint Traceability Variables,Char,Perm,SRCDOM,Source Data,,text,2,,SRCDOM,Source Data - ADINJREC,,,No,,,,,,,Assigned,,,FA@CE
117,ADINJREC,Datapoint Traceability Variables,Char,Perm,SRCVAR,Source Variable,,text,8,,SRCVAR,Source Variable - ADINJREC,,,No,,,,,,,Assigned,,,FASTRESC@CETERM
118,ADINJREC,Datapoint Traceability Variables,Num,Perm,SRCSEQ,Source Sequence Number,,integer,2,,SRCSEQ,,,,No,,Set to sequence number XX.XXSEQ of the source dataset,,,,,Derived,,,
1,ADISADA,Identifier Variables for BDS Datasets,Char,Req,STUDYID,Study Identifier,,text,11,,STUDYID,Study Identifier,,,Yes,,,,,,,Predecessor,ADSL.STUDYID,,
2,ADISADA,Identifier Variables for BDS Datasets,Char,Req,USUBJID,Unique Subject Identifier,,text,18,,USUBJID,,,,Yes,,,,,,,Predecessor,ADSL.USUBJID,,
3,ADISADA,ADSL Identifier Variables,Char,Req,SUBJID,Subject Identifier for the Study,,text,3,,SUBJID,,,,No,,,,,,,Predecessor,ADSL.SUBJID,,
4,ADISADA,Identifier Variables for BDS Datasets,Char,Perm,SITEID,Study Site Identifier,,text,2,,SITEID,Study Site Identifier,,,No,,,,,,,Predecessor,ADSL.SITEID,,
5,ADISADA,ADSL Subject Demographics Variables,Num,Req,AGE,Age,,integer,2,,AGE,,,,No,,,,,,,Predecessor,ADSL.AGE,,
6,ADISADA,ADSL Subject Demographics Variables,Char,Req,AGEU,Age Units,,text,5,,AGEU,Age Units,,,No,,,,,,,Predecessor,ADSL.AGEU,,YEARS
7,ADISADA,ADSL Subject Demographics Variables,Char,Req,SEX,Sex,,text,1,,SEX,Sex,,,No,,,,,,,Predecessor,ADSL.SEX,,M@F
8,ADISADA,ADSL Subject Demographics Variables,Char,Req,RACE,Race,,text,41,,RACE,Race,,,No,,,,,,,Predecessor,ADSL.RACE,,WHITE@BLACK OR AFRICAN AMERICAN@OTHER@ASIAN
9,ADISADA,ADSL Population Indicator Variables,Char,Cond,SAFFL,Safety Population Flag,,text,1,,SAFFL,No Yes Response - N/Y,,,Yes,,,,,,,Predecessor,ADSL.SAFFL,,Y@N
10,ADISADA,ADSL Population Indicator Variables (Sponsor-Defined),Char,,PKFL,Pharmacokinetic Analysis Population Flag,,text,1,,PKFL,No Yes Response,,,No,,,,,,,Predecessor,ADSL.PKFL,,Y
11,ADISADA,Treatment Timing Variables for BDS (Taken from ADSL),Num,,TRTSDT,Date of First Exposure to Treatment,,integer,5,,TRTSDT,,YYMMDD10.,,No,,,,,,,Predecessor,ADSL.TRTSDT,,
12,ADISADA,Treatment Timing Variables for BDS (Taken from ADSL),Num,,TRTSTM,Time of First Exposure to Treatment,,integer,5,,TRTSTM,,TIME5.,,No,,,,,,,Predecessor,ADSL.TRTSTM,,
13,ADISADA,Treatment Timing Variables for BDS (Taken from ADSL),Num,,TRTSDTM,Datetime of First Exposure to Treatment,,integer,10,,TRTSDTM,,E8601DT16.,,No,,,,,,,Predecessor,ADSL.TRTSDTM,,
14,ADISADA,Treatment Timing Variables for BDS (Taken from ADSL),Num,,TRTEDT,Date of Last Exposure to Treatment,,integer,5,,TRTEDT,,YYMMDD10.,,No,,,,,,,Predecessor,ADSL.TRTEDT,,
15,ADISADA,Treatment Timing Variables for BDS (Taken from ADSL),Num,,TRTETM,Time of Last Exposure to Treatment,,integer,5,,TRTETM,,TIME5.,,No,,,,,,,Predecessor,ADSL.TRTETM,,
16,ADISADA,Treatment Timing Variables for BDS (Taken from ADSL),Num,,TRTEDTM,Datetime of Last Exposure to Treatment,,integer,10,,TRTEDTM,,E8601DT16.,,No,,,,,,,Predecessor,ADSL.TRTEDTM,,
17,ADISADA,Record-Level Treatment Variables for BDS Datasets ,Char,Cond,TRTP,Planned Treatment,,text,30,,TRTP,Planned/Actual Treatment ,,,No,,,,,,,Predecessor,ADSL.TRT01P,,Placebo@0.15 mg MEDI0618 (intravenous)@0.45 mg MEDI0618 (intravenous)@1.35 mg MEDI0618 (intravenous)@4 mg MEDI0618 (intravenous)@12 mg MEDI0618 (intravenous)@40 mg MEDI0618 (intravenous)@100 mg MEDI0618 (intravenous)@200 mg MEDI0618 (intravenous)@100 mg MEDI0618 (subcutaneous)@IV 0.45 mg MEDI0618@IV 1.35 mg MEDI0618@IV 4 mg MEDI0618@IV 12 mg MEDI0618@IV 40 mg MEDI0618@IV 100 mg MEDI0618@IV 200 mg MEDI0618
18,ADISADA,Record-Level Treatment Variables for BDS Datasets (Sponsor-Defined),Char,,TRTPG1,Planned Pooled Treatment 1,,text,8,,TRTPG1,Planned/Actual Pooled Treatment,,,No,,,,,,,Predecessor,ADSL.TRT01PG1,,Placebo@MEDI0618
19,ADISADA,Record-Level Treatment Variables for BDS Datasets ,Char,,TRTA,Actual Treatment,,text,30,,TRTA,Planned/Actual Treatment ,,,No,,,,,,,Predecessor,ADSL.TRT01A,,Placebo@0.15 mg MEDI0618 (intravenous)@0.45 mg MEDI0618 (intravenous)@1.35 mg MEDI0618 (intravenous)@4 mg MEDI0618 (intravenous)@12 mg MEDI0618 (intravenous)@40 mg MEDI0618 (intravenous)@80 mg MEDI0618 (intravenous)@200 mg MEDI0618 (intravenous)@100 mg MEDI0618 (subcutaneous)
20,ADISADA,Record-Level Treatment Variables for BDS Datasets (Sponsor-Defined),Char,,TRTAG1,Actual Pooled Treatment 1,,text,8,,TRTAG1,Planned/Actual Pooled Treatment,,,No,,,,,,,Predecessor,ADSL.TRT01AG1,,Placebo@MEDI0618
21,ADISADA,Grouping Variables for BDS (Sponsor-Defined),Char,,COHORT,Cohort ,,text,23,,COHORT,Cohort,,,No,,,,,,,Predecessor,ADSL.COHORT,,COHORT 1 (INTRAVENOUS)@COHORT 2 (INTRAVENOUS)@COHORT 3 (INTRAVENOUS)@COHORT 4 (INTRAVENOUS)@COHORT 5 (INTRAVENOUS)@COHORT 6 (INTRAVENOUS)@COHORT 7 (INTRAVENOUS)@COHORT 8 (INTRAVENOUS)@COHORT 9 (SUBCUTANEOUS)@COHORT2@COHORT3@COHORT4@COHORT5@COHORT6@COHORT7@COHORT8
22,ADISADA,Grouping Variables for BDS (Sponsor-Defined),Char,,COHORTG1,Pooled Cohort Group 1,,text,24,,COHORTG1,Pooled Cohort Group 1,,,No,,,,,,,Predecessor,ADSL.COHORTG1,,COHORT 1 (INTRAVENOUS)@COHORT 2 (INTRAVENOUS)@COHORT 3 (INTRAVENOUS)@COHORT 4 (INTRAVENOUS)@COHORT 5-8 (INTRAVENOUS)@COHORT 9 (SUBCUTANEOUS)@COHORT2@COHORT3@COHORT4@COHORT 5-8
23,ADISADA,Grouping Variables for BDS (Sponsor-Defined),Char,,COHORTG2,Pooled Cohort Group 2,,text,24,,COHORTG2,Pooled Cohort Group 2,,,No,,,,,,,Predecessor,ADSL.COHORTG2,,COHORT 1-8 (INTRAVENOUS)@COHORT 1-8
24,ADISADA,Identifier Variables for BDS Datasets,Num,Perm,ASEQ,Analysis Sequence Number,,integer,2,,ASEQ,,,,No,,,,,,,Assigned,,,
25,ADISADA,Timing Variables for BDS Datasets,Num,Perm,ADT,Analysis Date,,integer,5,,ADT,,YYMMDD10.,,No,,Date part of IS.ISDTC converted to numeric SAS date,MT.ADISADA.ADT,,,,Derived,,,
26,ADISADA,Timing Variables for BDS Datasets,Num,Perm,ATM,Analysis Time,,integer,5,,ATM,,TIME5.,,No,,Time part of IS.ISDTC converted to numeric SAS date,MT.ADISADA.ATM,,,,Derived,,,
27,ADISADA,Timing Variables for BDS Datasets,Num,Perm,ADTM,Analysis Datetime,,integer,10,,ADTM,,E8601DT16.,,No,,IS.ISDTC converted to numeric SAS date,MT.ADISADA.ADTM,,,,Derived,,,
28,ADISADA,Timing Variables for BDS Datasets,Num,Perm,ADY,Analysis Relative Day ,,integer,2,,ADY,,,,No,,If ADT >= TRTSDT then ADY = ADT - TRTSDT + 1 Else if ADT<TRTSDT then ADY = ADT - TRTSDT,MT.ADISADA.ADY,,,,Derived,,,
43,ADISADA,Timing Variables for BDS Datasets,Char,Cond,AVISIT,Analysis Visit ,,text,26,,AVISIT,Analysis Visit - ADISADA,,,No,,Value level metadata,MT.ADISADA.AVISIT,,,,Derived,,,Baseline@Day 8@Study participation period@Day 15@Day 29@Day 57@Day 71@Day 85@Baseline@Unscheduled 2.01@Day 22@Day 43
44,ADISADA,Timing Variables for BDS Datasets,Num,Perm,AVISITN,Analysis Visit (N),,integer,3,,AVISITN,Analysis Visit (N) - ADISADA,,,No,,,,,,,Assigned,,,
104,ADISADA,Analysis Parameter Variables for BDS Datasets,Char,Req,PARAM,Parameter ,,text,57,,PARAM,Parameters - ADISADA,,,Yes,,,,,,,Assigned,,,Binding Antidrug Antibody Screening@Positive at any visit (Y/N)@Treatment-induced positive (Y/N)@Treatment-boosted positive (Y/N)@Treatment-emergent positive (Y/N)@Positive at baseline and post-baseline (Y/N)@Positive at baseline and not detected post-baseline (Y/N)@Binding Antidrug Antibody Titer@Diastolic Blood Pressure (mmHg)@Pulse Rate (beats/min)@Respiratory Rate (breaths/min)@Systolic Blood Pressure (mmHg)@Temperature (C)
105,ADISADA,Analysis Parameter Variables for BDS Datasets,Char,Req,PARAMCD,Parameter Code,,text,8,,PARAMCD,Parameter Code - ADISADA,,,Yes,,,,,,,Assigned,,,ADA_BABS@ADAPOSVI@ADAINPOS@ADABOPOS@ADAEMPOS@ADAPOSPO@ADAPOSNG@ADA_BABT@
106,ADISADA,Analysis Parameter Variables for BDS Datasets,Char,Perm,PARAMTYP,Parameter Type,,text,7,,PARAMTYP,Parameter Type,,,No,,,,,,,Assigned,,,DERIVED
107,ADISADA,Analysis Parameter Variables for BDS Datasets,Num,Cond,AVAL,Analysis Value,,integer,2,,AVAL,,,,No,,Valuelevel metadata,MT.ADISADA.AVAL,,,,Derived,,,
108,ADISADA,Analysis Parameter Variables for BDS Datasets,Char,Cond,AVALC,Analysis Value (C),,text,8,,AVALC,AVALC / BASEC - ADISADA,,,No,,Value level metadata,MT.ADISADA.AVALC,,,,Derived,,,NEGATIVE@POSITIVE@Y@N@2@<2@4@8@16@32
109,ADISADA,Analysis Parameter Variables for BDS Datasets,Num,Cond,BASE,Baseline Value,,integer,1,,BASE,,,,No,,AVAL of the baseline record identified by ABLFL,MT.ADISADA.BASE,,,,Derived,,,
112,ADISADA,Analysis Parameter Variables for BDS Datasets,Char,Perm,BASEC,Baseline Value (C),,text,8,,BASEC,AVALC / BASEC - ADISADA,,,No,,AVALC of the baseline record identified by ABLFL,MT.ADISADA.BASEC,,,,Derived,,,
113,ADISADA,Flag Variables for BDS Datasets,Char,Cond,ABLFL,Baseline Record Flag,,text,1,,ABLFL,No Yes Response - Y,,,No,,"Set to ""Y"" for records with AVISIT = ""Baseline""",MT.ADISADA.ABLFL,,,,Derived,,,Y
114,ADISADA,Analysis Descriptor Variables for BDS Datasets,Char,Cond,DTYPE,Derivation Type,,text,7,,DTYPE,Derivation Type - ADISADA,,,No,,"Set to ""LLOQ"" if AVALC=""<2""; set to ""PHANTOM"" for records added for missed assessments.",,,,,Assigned,,,PHANTOM
115,ADISADA,Analysis Parameter Criteria Variables for BDS Datasets,Char,Perm,CRIT1,Analysis Criterion 1,,text,50,,CRIT1,Analysis Criterion 1 - ADISADA,,,No,,"If PARAMCD = ""ADA_BABS"" and BASEC = ""NEGATIVE"" and AVALC = ""POSITIVE"" then CRIT1 = ""Negative at baseline and positive at current visit""",MT.ADISADA.CRIT1,,,,Derived,,,
116,ADISADA,Analysis Parameter Criteria Variables for BDS Datasets,Char,Cond,CRIT1FL,Criterion 1 Evaluation Result Flag,,text,1,,CRIT1FL,No Yes Response - Y,,,No,,"Set to ""Y"" if CRIT1 is populated",MT.ADISADA.CRIT1FL,,,,Derived,,,
117,ADISADA,Analysis Parameter Criteria Variables for BDS Datasets,Char,Perm,CRIT2,Analysis Criterion 2,,text,38,,CRIT2,Analysis Criterion 2 - ADISADA,,,No,,"If PARAMCD = ""ADA_BABS"" and BASEC = ""POSITIVE"" and AVALC = ""POSITIVE"" then CRIT1 = ""Positive at baseline and current visit",MT.ADISADA.CRIT2,,,,Derived,,,
118,ADISADA,Analysis Parameter Criteria Variables for BDS Datasets,Char,Cond,CRIT2FL,Criterion 2 Evaluation Result Flag,,text,1,,CRIT2FL,No Yes Response - Y,,,No,,"Set to ""Y"" if CRIT1 is populated",MT.ADISADA.CRIT2FL,,,,Derived,,,
119,ADISADA,Analysis Parameter Criteria Variables for BDS Datasets,Char,Perm,CRIT3,Analysis Criterion 3,,text,54,,CRIT3,Analysis Criterion 3 - ADISADA,,,No,,"If PARAMCD = ""ADA_BABS"" and BASEC = ""POSITIVE"" and AVALC = ""NEGATIVE"" then CRIT1 = ""Positive at baseline and not detected at current visit""",MT.ADISADA.CRIT3,,,,Derived,,,
120,ADISADA,Analysis Parameter Criteria Variables for BDS Datasets,Char,Cond,CRIT3FL,Criterion 3 Evaluation Result Flag,,text,1,,CRIT3FL,No Yes Response - Y,,,No,,"Set to ""Y"" if CRIT1 is populated",MT.ADISADA.CRIT3FL,,,,Derived,,,
121,ADISADA,Flag Variables for BDS Datasets,Char,Cond,ANL01FL,Analysis Flag 01,,text,1,,ANL01FL,No Yes Response - Y,,,No,,"If PARAMCD = ""ADA_BABS"" and either AVALC = ""NEGATIVE"" or DTYPE = ""PHANTOM"" or ISTSTOPO = ""CONFIRM"" then ANL01FL = ""Y""",MT.ADISADA.ANL01FL,,,,Derived,,,
122,ADISADA,SDTM Variable for Traceability,Char,,ISTSTOPO,Test Operational Objective,,text,7,,ISTSTOPO,Test Operational Objective - ADISADA,,,No,,,,,,,Predecessor,IS.ISTSTOPO,,
123,ADISADA,SDTM Variable for Traceability,Char,,ISSTRESC,Character Result/Finding in Std Format,,text,8,,ISSTRESC,,,,No,,,,,,,Predecessor,IS.ISSTRESC,,
124,ADISADA,SDTM Variable for Traceability,Char,,SAMPCOM,Sample Comment,,text,14,,SAMPCOM,,,,No,,,,,,,Predecessor,IS.SAMPCOM,,
125,ADISADA,Datapoint Traceability Variables,Char,Perm,SRCDOM,Source Data,,text,7,,SRCDOM,Source Data - ADISADA,,,No,,,,,,,Assigned,,,IS@AD
127,ADISADA,Datapoint Traceability Variables,Char,Perm,SRCVAR,Source Variable,,text,8,,SRCVAR,Source Variable - ADISADA,,,No,,,,,,,Assigned,,,ISSTRESC@AVALC@CRIT2FL@CRIT1FL@ISSTRESN@CRIT3FL
126,ADISADA,Datapoint Traceability Variables,Num,Perm,SRCSEQ,Source Sequence Number,,integer,2,,SRCSEQ,,,,No,,,,,,,Assigned,,,
1,ADLB,Identifier Variables for BDS Datasets,Char,Req,STUDYID,Study Identifier,,text,11,,STUDYID,Source Sequence Number - ADISADA,,,Yes,,,,,,,Predecessor,ADSL.STUDYID,,
2,ADLB,Identifier Variables for BDS Datasets,Char,Req,USUBJID,Unique Subject Identifier,,text,18,,USUBJID,,,,Yes,,,,,,,Predecessor,ADSL.USUBJID,,
3,ADLB,ADSL Identifier Variables,Char,Req,SUBJID,Subject Identifier for the Study,,text,3,,SUBJID,,,,No,,,,,,,Predecessor,ADSL.SUBJID,,
4,ADLB,Identifier Variables for BDS Datasets,Char,Perm,SITEID,Study Site Identifier,,text,2,,SITEID,Study Site Identifier,,,No,,,,,,,Predecessor,ADSL.SITEID,,
5,ADLB,ADSL Subject Demographics Variables,Num,Req,AGE,Age,,integer,2,,AGE,,,,No,,,,,,,Predecessor,ADSL.AGE,,
6,ADLB,ADSL Subject Demographics Variables,Char,Req,AGEU,Age Units,,text,5,,AGEU,Age Units,,,No,,,,,,,Predecessor,ADSL.AGEU,,YEARS
7,ADLB,ADSL Subject Demographics Variables,Char,Req,SEX,Sex,,text,1,,SEX,Sex,,,No,,,,,,,Predecessor,ADSL.SEX,,M@F
8,ADLB,ADSL Subject Demographics Variables,Char,Req,RACE,Race,,text,41,,RACE,Race,,,No,,,,,,,Predecessor,ADSL.RACE,,WHITE@BLACK OR AFRICAN AMERICAN@OTHER@ASIAN
9,ADLB,ADSL Population Indicator Variables,Char,Cond,SAFFL,Safety Population Flag,,text,1,,SAFFL,No Yes Response - N/Y,,,Yes,,,,,,,Predecessor,ADSL.SAFFL,,Y
10,ADLB,ADSL Population Indicator Variables (Sponsor-Defined),Char,,PKFL,Pharmacokinetic Analysis Population Flag,,text,1,,PKFL,No Yes Response - N/Y,,,No,,,,,,,Predecessor,ADSL.PKFL,,Y
11,ADLB,Treatment Timing Variables for BDS (Taken from ADSL),Num,,TRTSDT,Date of First Exposure to Treatment,,integer,5,,TRTSDT,,YYMMDD10.,,No,,,,,,,Predecessor,ADSL.TRTSDT,,
12,ADLB,Treatment Timing Variables for BDS (Taken from ADSL),Num,,TRTSTM,Time of First Exposure to Treatment,,integer,5,,TRTSTM,,TIME5.,,No,,,,,,,Predecessor,ADSL.TRTSTM,,
13,ADLB,Treatment Timing Variables for BDS (Taken from ADSL),Num,,TRTSDTM,Datetime of First Exposure to Treatment,,integer,10,,TRTSDTM,,E8601DT16.,,No,,,,,,,Predecessor,ADSL.TRTSDTM,,
14,ADLB,Treatment Timing Variables for BDS (Taken from ADSL),Num,,TRTEDT,Date of Last Exposure to Treatment,,integer,5,,TRTEDT,,YYMMDD10.,,No,,,,,,,Predecessor,ADSL.TRTEDT,,
15,ADLB,Treatment Timing Variables for BDS (Taken from ADSL),Num,,TRTETM,Time of Last Exposure to Treatment,,integer,5,,TRTETM,,TIME5.,,No,,,,,,,Predecessor,ADSL.TRTETM,,
16,ADLB,Treatment Timing Variables for BDS (Taken from ADSL),Num,,TRTEDTM,Datetime of Last Exposure to Treatment,,integer,10,,TRTEDTM,,E8601DT16.,,No,,,,,,,Predecessor,ADSL.TRTEDTM,,
17,ADLB,Record-Level Treatment Variables for BDS Datasets ,Char,Cond,TRTP,Planned Treatment,,text,30,,TRTP,Planned/Actual Treatment ,,,No,,,,,,,Predecessor,ADSL.TRT01P,,Placebo@0.15 mg MEDI0618 (intravenous)@0.45 mg MEDI0618 (intravenous)@1.35 mg MEDI0618 (intravenous)@4 mg MEDI0618 (intravenous)@12 mg MEDI0618 (intravenous)@40 mg MEDI0618 (intravenous)@100 mg MEDI0618 (intravenous)@200 mg MEDI0618 (intravenous)@100 mg MEDI0618 (subcutaneous)
18,ADLB,Record-Level Treatment Variables for BDS Datasets (Sponsor-Defined),Char,,TRTPG1,Planned Pooled Treatment 1,,text,8,,TRTPG1,Planned/Actual Pooled Treatment,,,No,,,,,,,Predecessor,ADSL.TRT01PG1,,Placebo@MEDI0618
19,ADLB,Record-Level Treatment Variables for BDS Datasets ,Char,,TRTA,Actual Treatment,,text,30,,TRTA,Planned/Actual Treatment ,,,No,,,,,,,Predecessor,ADSL.TRT01A,,Placebo@0.15 mg MEDI0618 (intravenous)@0.45 mg MEDI0618 (intravenous)@1.35 mg MEDI0618 (intravenous)@4 mg MEDI0618 (intravenous)@12 mg MEDI0618 (intravenous)@40 mg MEDI0618 (intravenous)@80 mg MEDI0618 (intravenous)@200 mg MEDI0618 (intravenous)@100 mg MEDI0618 (subcutaneous)
20,ADLB,Record-Level Treatment Variables for BDS Datasets (Sponsor-Defined),Char,,TRTAG1,Actual Pooled Treatment 1,,text,8,,TRTAG1,Planned/Actual Pooled Treatment,,,No,,,,,,,Predecessor,ADSL.TRT01AG1,,Placebo@MEDI0618
21,ADLB,Grouping Variables for BDS (Sponsor-Defined),Char,,COHORT,Cohort ,,text,23,,COHORT,Cohort,,,No,,,,,,,Predecessor,ADSL.COHORT,,COHORT 1 (INTRAVENOUS)@COHORT 2 (INTRAVENOUS)@COHORT 3 (INTRAVENOUS)@COHORT 4 (INTRAVENOUS)@COHORT 5 (INTRAVENOUS)@COHORT 6 (INTRAVENOUS)@COHORT 7 (INTRAVENOUS)@COHORT 8 (INTRAVENOUS)@COHORT 9 (SUBCUTANEOUS)
22,ADLB,Grouping Variables for BDS (Sponsor-Defined),Char,,COHORTG1,Pooled Cohort Group 1,,text,24,,COHORTG1,Pooled Cohort Group 1,,,No,,,,,,,Predecessor,ADSL.COHORTG1,,COHORT 1 (INTRAVENOUS)@COHORT 2 (INTRAVENOUS)@COHORT 3 (INTRAVENOUS)@COHORT 4 (INTRAVENOUS)@COHORT 5-8 (INTRAVENOUS)@COHORT 9 (SUBCUTANEOUS)
23,ADLB,Grouping Variables for BDS (Sponsor-Defined),Char,,COHORTG2,Pooled Cohort Group 2,,text,24,,COHORTG2,Pooled Cohort Group 2,,,No,,,,,,,Predecessor,ADSL.COHORTG2,,COHORT 1-8 (INTRAVENOUS)
24,ADLB,Sponsor-defined,Char,,ADAPOSFL,ADA Positive at any Visit,,text,1,,ADAPOSFL,No Yes Response - N/Y,,,No,,,,,,,Predecessor,ADSL.ADAPOSFL,,N@Y
25,ADLB,Timing Variables for BDS Datasets,Num,Perm,ADT,Analysis Date,,integer,5,,ADT,,YYMMDD10.,,No,,Date part of LB.LBDTC converted to numeric SAS date,MT.ADLB.ADT,,,,Derived,,,
26,ADLB,Timing Variables for BDS Datasets,Num,Perm,ATM,Analysis Time,,integer,5,,ATM,,TIME5.,,No,,Time part of LB.LBDTC converted to numeric SAS time,MT.ADLB.ATM,,,,Derived,,,
27,ADLB,Timing Variables for BDS Datasets,Num,Perm,ADTM,Analysis Datetime,,integer,10,,ADTM,,E8601DT16.,,No,,LB.LBDTC converted to numeric SAS date,MT.ADLB.ADTM,,,,Derived,,,
28,ADLB,Timing Variables for BDS Datasets,Num,Perm,ADY,Analysis Relative Day ,,integer,3,,ADY,,,,No,,If ADT >= TRTSDT then ADY = ADT - TRTSDT + 1. Else if ADT<TRTSDT then ADY = ADT - TRTSDT,MT.ADLB.ADY,,,,Derived,,,
43,ADLB,Timing Variables for BDS Datasets,Char,Cond,AVISIT,Analysis Visit ,,text,21,,AVISIT,Analysis Visits - ADLB,,,No,,"If ADTM <= TRTSDTM then AVISIT = ""Baseline"". Else if LB.VISIT=""TREATMENT"" then AVISIT = ""Treatment"". Else AVISIT = ""DAY XX"" with XX being the prescribed study day of LB.VISIT",MT.ADLB.AVISIT,,,,Derived,,,Day 8@Treatment@Baseline@Day 15@Day 29@Unscheduled 6.11@Day 57@Unscheduled 8.11@Unscheduled 7.01@Day 85@Day 71@Unscheduled 2.02@Early termination@Post-Baseline Maximum
44,ADLB,Timing Variables for BDS Datasets,Num,Perm,AVISITN,Analysis Visit (N),,float,4,2,AVISITN,Analysis Visits (N) - ADLB,,,No,Numeric code for AVISITN,,,,,,Assigned,,,
45,ADLB,Timing Variables for BDS Datasets,Char,Cond,ATPT,Analysis Timepoint,,text,8,,ATPT,Analysis Timepoints - ADLB,,,Yes,,"If VISITNUM=1 then ATPT = ""Pre-dose"". Else if LB.LBTPT=""60 MIN"" then ATPT = ""1 hour"". Else if LB.LBTPT ^= MISSING then ATPT = lowcase(LB.LBTPT). ",MT.ADLB.ATPT,,,,Derived,,,48 hours@24 hours@Pre-dose
46,ADLB,Timing Variables for BDS Datasets,Num,Perm,ATPTN,Analysis Timepoint (N),,integer,5,,ATPTN,Analysis Timepoints (N) - ADLB,,,No,Numeric code for ATPT,,,,,,Assigned,,,
47,ADLB,Timing Variables for BDS Datasets,Char,Perm,ATPTREF,Analysis Timepoint Reference,,text,17,,ATPTREF,Analysis Timepoint Reference,,,No,,"If LB.LBTPTREF=""START OF EXPOSURE TO STUDY DRUG"" or VISITNUM=1  then ATPTREF = ""Start of exposure"". Else if LB.LBTPTREF=""END OF EXPOSURE TO STUDY DRUG"" then ATPTREF = ""End of exposure""",MT.ADLB.ATPTREF,,,,Derived,,,End of exposure@Start of exposure
48,ADLB,Timing Variables for BDS Datasets (Sponsor-Defined),Num,,ARFTDTM,Anchor Timepoint for Analysis Rel. Time,,integer,10,,ARFTDTM,,E8601DT16.,,No,,"If LB.LBTPTREF=""START OF TREATMENT"" or VISITNUM=1 then ARFTDTM = TRTSDTM. Else if LB.LBTPTREF=""END OF TREATMENT"" then ARFTDTM = TRTEDTM",MT.ADLB.ARFTDTM,,,,Derived,,,
49,ADLB,Timing Variables for BDS Datasets,Num,Perm,ARELTM,Analysis Relative Time,,integer,5,,ARELTM,,TIME5.,,No,,ARELTM = ADTM - ARFTDTM,MT.ADLB.ARELTM,,,,Derived,,,
50,ADLB,Timing Variables for BDS Datasets,Char,Perm,ARELTMU,Analysis Relative Time Unit,,text,5,,ARELTMU,Analysis Relative Time Unit,,,No,HH:MM,,,,,,Assigned,,,HH:MM
104,ADLB,Analysis Parameter Variables for BDS Datasets,Char,Req,PARAM,Parameter ,,text,45,,PARAM,Parameter - ADLB,,,Yes,Concatenation of LB.LBTEST and LB.LBSTRESU,,,,,,Assigned,,,"Alanine Aminotransferase (U/L)@Albumin (g/L)@Alkaline Phosphatase (U/L)@Aspartate Aminotransferase (U/L)@Bicarbonate (mmol/L)@Bilirubin (umol/L)@C Reactive Protein (mg/L)@Calcium (mmol/L)@Chloride (mmol/L)@Cholesterol (mmol/L)@Creatine Kinase (U/L)@Creatinine (umol/L)@Creatinine Clearance (mL/min/1.73m2)@Glucose (mmol/L)@HDL Cholesterol (mmol/L)@LDL Cholesterol (mmol/L)@Phosphate (mmol/L)@Potassium (mmol/L)@Protein (g/L)@Sodium (mmol/L)@Triglycerides (mmol/L)@Urea Nitrogen (mmol/L)@Activated Partial Thromboplastin Time (sec)@Prothrombin Intl. Normalized Ratio@Prothrombin Time (%)@Amphetamine@Barbiturates@Benzodiazepine@Cocaine@Opiate@Tetrahydrocannabinol@Basophils (10^9/L)@Eosinophils (10^9/L)@Ery. Mean Corpuscular HGB Concentration (g/L)@Ery. Mean Corpuscular Hemoglobin (pg)@Erythrocytes (10^12/L)@Hematocrit (L/L)@Hemoglobin (g/L)@Hemoglobin A1C (%)@Leukocytes (10^9/L)@Lymphocytes (10^9/L)@Monocytes (10^9/L)@Neutrophils (10^9/L)@Platelets (10^9/L)@Reticulocytes (10^9/L)@Thyrotropin (mU/L)@Creatinine (mmol/L)@Occult Blood@Direct Bilirubin (umol/L)@Indirect Bilirubin (umol/L)@Bacteria@Calcium Carbonate Crystals@Epithelial Cells (/HPF)@Erythrocytes (/HPF)@Granular Casts (/HPF)@Hyaline Casts (/HPF)@Leukocytes (/HPF)@Oxalate@Triple Phosphate Crystals@Urate@Choriogonadotropin Beta (IU/L)@Follicle Stimulating Hormone (U/L)@Thyroxine, Free (pmol/L)"
105,ADLB,Analysis Parameter Variables for BDS Datasets,Char,Req,PARAMCD,Parameter Code,,text,8,,PARAMCD,Parameter Code - ADLB,,,Yes,LB.LBTESTCD,,,,,,Assigned,,,ALT@ALB@ALP@AST@BICARB@BILI@CRP@CL@CHOL@CK@CREAT@CREATCLR@GLUC@HDL@LDL@PHOS@PROT@SODIUM@TRIG@UREAN@APTT@INR@AMPHET@BARB@BNZDZPN@COCAINE@OPIATE@THC@BASO@EOS@MCHC@RBC@HCT@HGB@HBA1C@WBC@LYM@MONO@NEUT@PLAT@RETI@TSH@OCCBLD@BILDIR@BILIND@BACT@CYCACAR@EPIC@CSGRAN@CSHYAL@OXALATE@CYTRPHOS@URATE@HCG@FSH@T4FR
106,ADLB,Analysis Parameter Variables for BDS Datasets,Num,Perm,PARAMN,Parameter (N),,integer,2,,PARAMN,Parameter (N) - ADLB,,,No,Numeric code for PARAM,,,,,,Assigned,,,
107,ADLB,Analysis Parameter Variables for BDS Datasets,Char,Perm,PARCAT1,Parameter Category 1,,text,15,,PARCAT1,Parameter Category 1 - ADLB,,,No,,If ,MT.ADLB.PARCAT1,,,,Derived,,,
110,ADLB,Analysis Parameter Variables for BDS Datasets,Num,Cond,AVAL,Analysis Value,,float,6,2,AVAL,,,,No,,,,,,,Predecessor,LB.LBSTRESN,,
110,ADLB,Analysis Parameter Variables for BDS Datasets,Char,Cond,AVALC,Analysis Value (C),,text,8,,AVALC,,,,No,,,,,,,Predecessor,LB.LBSTRESC,,17.2@16.1@15.4@15.2@27.0@42.2@42.7@41.2@39.8@40.6@44.4@42.3@37.0@36.7@37.6@27.6@24.4@22.6@22.9@47.1@27.8@29.6@29.0@26.2@14.7@13.2@13.0@11.3@0.35@0.28@0.31@0.27@2.43@2.46@2.44@2.38@2.39@102.3@103.4@104.0@105.3@102.5@4.85@5.13@5.07@4.70@4.41@116.7@56.1@52.7@68.7@247.4@92.1@86.4@85.4@86.9@83.8@95@4.77@4.51@4.61@4.50@4.00@1.26@1.22@1.20@1.23@2.95@3.41@3.25@3.00@2.78@1.10@1.03@1.12@1.05@4.36@4.54@4.21@4.16@67.2@67.3@64.8@63.3@64.4@137.4@139.5@138.4@138.1@2.07@1.04@1.33@0.86@3.58@4.46@4.63@4.40@4.49@25.6@27.7@27.5@27.4@1.08@1.14@1.13@1.11@84.6@75.2@76.6@79.7@NEGATIVE@0.05@0.04@0.03@0.21@0.17@0.25@0.20@321@335@338@330@30.4@30.6@30.1@29.9@4.48@4.35@0.41@0.42@0.40@131.0@140.0@141.0@135.0@130.0@4.34@4.06@4.52@4.84@1.18@1.09@1.17@1.27@0.44@0.49@0.54@2.25@2.63@2.69@287@316@323@269@44.8@44.2@46.9@59.6@58.0@2.51@12.68@32.2@26.5@43.8@43.6@43.2@41.6@115.7@112.2@110.7@104.2@114.3@19.8@18.6@16.6@17.7@29.5@10.2@8.5@10.8@0.65@0.63@0.90@0.69@2.34@2.41@2.32@2.30@102.8@105.4@104.4@103.9@4.75@5.29@5.21@5.09@4.96@116.5@86.0@87.1@129.9@138.8@81.1@77.6@76.9@86.3@80.6@109@4.80@4.91@5.04@0.88@0.95@0.98@3.19@3.72@3.68@3.50@3.46@0.97@1.16@1.30@4.25@4.43@4.30@4.22@74.0@75.6@74.1@71.5@71.4@140.6@139.2@140.5@1.57@1.31@0.92@1.01@3.27@4.64@5.14@4.05@4.68@25.9@25.2@25.3@26.1@93.8@91.8@97.9@0.07@0.06@0.30@0.34@348@341@344@343@30.9@30.5@4.76@4.98@4.71@147.0@150.0@144.0@143.0@7.07@7.84@7.14@7.41@7.62@1.88@2.01@1.71@1.87@2.05@0.46@0.48@0.39@0.47@4.31@4.81@4.57@4.53@214@226@220@225@222@66.7@67.5@63.2@65.4@52.8@11.98@28.7@41.1@48.6@36.3@37.3@46.0@43.5@45.9@44.3@81.9@77.0@84.2@83.4@24.1@23.7@33.0@25.7@28.0@28.5@29.4@27.3@28.1@11.0@13.8@15.6@15.0@1.95@0.96@1.38@0.84@3.71@2.55@2.56@2.58@100.9@103.0@102.2@102.4@100.1@5.01@4.69@85.9@77.9@93.2@85.7@77.1@76.3@74.4@84.4@113@5.12@4.74@0.72@0.79@0.83@0.78@2.86@3.38@3.57@3.13@1.37@1.52@1.34@3.88@4.03@69.5@67.1@70.3@68.0@71.8@137.1@140.2@137.2@138.9@1.66@1.58@1.82@1.91@6.18@6.35@3.49@25.1@24.7@1.02@89.9@95.8@0.12@0.14@0.08@0.11@352@357@350@30.3@29.7@4.79@5.05@0.43@145.0@154.0@149.0@153.0@6.92@6.68@7.27@7.08@6.42@2.29@2.47@2.85@2.28@0.60@0.61@0.51@0.45@3.04@3.48@3.84@3.47@241@198@224@249@81.6@89.1@94.0@89.7@AUQ@26.0@26.4@32.7@44.7@44.5@43.9@61.6@56.4@58.8@63.4@21.5@19.5@22.4@20.6@31.2@50.3@33.1@19.0@1.45@0.56@2.45@2.42@100.5@101.2@102.1@100.3@100.7@6.30@6.65@6.97@6.67@6.02@178.1@82.6@88.8@179.5@126.4@87.0@85.0@87.3@84.5@86.5@4.92@4.32@4.42@1.29@1.48@1.35@4.18@0.82@4.67@69.3@72.5@73.2@135.2@137.5@137.3@1.00@1.06@6.85@7.34@5.08@24.9@88.1@100.0@0.01@0.02@0.09@332@28.8@5.22@5.53@5.80@5.38@5.32@0.50@156.0@159.0@171.0@158.0@157.0@4.17@5.24@5.37@1.76@2.26@1.99@0.23@0.37@0.33@2.04@2.50@2.52@2.54@217@213@212@191@215@73.6@77.7@93.7@76.1@5.69@36.8@28.9@42.8@40.8@41.5@40.7@45.5@64.9@67.6@25.4@20.9@23.9@29.8@31.6@31.7@32.3@32.6@10.5@2.79@0.76@0.77@0.71@2.31@2.33@101.5@101.7@4.82@5.66@5.25@6.03@227.0@90.0@93.4@145.1@131.2@68.6@65.2@69.8@5.28@1.49@1.54@1.62@3.11@3.60@3.42@3.93@0.94@4.27@4.24@4.86@4.62@69.1@68.4@73.3@140.4@139.0@138.3@139.7@1.24@4.83@5.23@3.09@23.8@24.5@24.3@0.99@110.0@104.9@109.2@106.8@0.15@0.18@0.16@319@324@331@327@322@26.7@26.9@27.1@5.35@5.45@5.78@146.0@9.84@6.86@7.53@6.21@6.57@1.79@2.10@2.19@0.59@7.12@3.80@4.26@3.40@3.52@211@207@204@61.9@105.9@65.6@21.85@16.3@21.4@21.1@43.3@43.4@45.2@60.8@64.3@66.8@54.6@18.7@22.7@28.3@30.8@11.2@13.3@14.5@12.5@5.93@2.27@2.36@2.40@99.9@98.7@3.91@64.1@105.0@136.0@65.0@58.6@58.9@66.1@124@4.33@4.65@2.64@2.83@2.73@2.70@1.07@0.93@3.99@4.19@4.09@70.0@68.3@71.1@70.9@73.0@135.8@134.3@135.7@137.0@136.9@1.46@3.33@3.59@3.83@2.82@2.80@24.8@81.5@82.0@80.3@0.10@346@363@358@349@345@31.8@31.4@31.3@4.93@4.66@5.03@155.0@7.74@10.91@5.90@11.20@1.68@1.63@1.73@1.59@0.64@8.56@3.34@8.67@279@256@242@45.4@59.3@58.2@61.2@4.78@TRACE-IN@22.2@30.7@118.9@128.7@133.0@122.5@124.4@23.0@25.5@27.2@12.7@11.7@0.58@2.35@2.37@106.7@104.7@4.97@5.85@5.40@5.68@129.7@115.1@115.9@144.3@84.7@88.9@78.3@83.5@4.56@4.60@0.81@1.19@4.10@4.12@67.4@69.9@67.9@140.1@139.6@1.47@1.97@1.64@3.12@3.89@24.6@89.8@89.5@87.5@0.19@342@29.1@29.2@4.88@5.34@142.0@5.95@5.91@6.14@6.39@5.89@1.67@1.61@0.57@3.63@3.69@3.62@3.81@3.66@223@231@68.5@85.2@71.7@1.32@21.54@19.7@23.4@45.7@46.3@48.1@58.4@55.1@56.9@17.5@16.4@17.0@22.1@13.6@16.2@21.62@3.16@2.49@2.59@99.3@103.6@99.4@3.94@3.36@134.0@72.2@189.3@117.0@73.9@69.2@64.7@70.6@5.48@1.25@72.9@70.8@69.6@67.7@75.8@137.7@137.9@1.28@1.94@1.55@3.51@26.8@26.6@26.3@25.8@94.3@91.5@0.13@337@326@4.47@4.28@0.38@128.0@125.0@7.70@7.63@7.64@7.59@2.67@0.66@4.13@300@353@298@57.7@16.48@21.2@17.3@19.4@15.5@14.8@42.9@39.1@41.7@42.6@95.1@80.0@82.8@73.5@84.3@99.0@23.3@21.9@28.4@24.2@19.6@19.2@22.3@20.0@0.32@2.24@2.22@104.1@103.3@5.64@5.74@5.27@49.8@65.3@123.4@49.4@43.1@47.9@107@5.36@1.42@1.21@1.36@20.4@18.5@3.75@3.23@4.01@4.55@68.2@68.9@139.1@136.5@134.9@139.9@0.87@2.97@3.56@98.8@96.3@93.9@92.0@318@30.2@4.29@4.37@122.0@132.0@138.0@5.62@4.94@2.16@2.03@2.76@1.93@1.89@239@265@240@236@51.8@50.6@53.2@66.80@1.39@POSITIVE@5.51@2+@1+@TRACE-LY@33.7@23.1@23.6@47.6@42.4@67.0@61.1@60.4@20.1@21.0@12.9@17.6@13.1@0.36@0.55@2.57@2.48@99.1@102.6@5.83@5.17@5.49@116.1@111.6@78.4@73.1@108.6@195.7@76.2@77.8@74.8@87.6@79.6@4.90@5.56@5.52@5.20@1.15@19.9@4.07@3.74@3.64@4.04@5.70@5.15@5.00@5.60@84.9@373@366@365@364@5.06@160.0@151.0@162.0@152.0@3.79@3.26@0.26@2.02@184@183@185@85.5@60.3@98.1@22.52@14.4@13.4@14.0@43.7@57.5@54.1@53.6@60.1@17.8@16.9@18.4@28.6@29.3@10.4@101.6@101.0@4.20@4.08@121.5@183.0@81.8@124.0@142.9@60.7@62.5@5.11@4.87@0.85@2.88@3.17@3.21@3.96@4.14@70.7@71.2@72.8@138.6@320@336@129.0@4.44@4.38@3.85@2.89@2.60@2.96@205@196@210@41.3@54.5@25.31@18.2@23.2@44.1@45.3@52.9@0.68@3.76@6.50@0.74@101.9@101.1@3.97@218.6@336.9@98.6@176.2@240.3@92.4@85.6@76.7@93.6@5.16@4.11@4.72@1.56@1.43@1.40@3.92@138.2@140.7@0.70@8.31@7.61@7.71@113.0@96.7@101.8@347@354@334@28.2@4.59@3.39@4.23@2.18@3.31@2.23@60.2@74.9@13.9@14.2@41.9@40.9@63.6@57.6@63.1@16.8@1.69@2.61@103.1@103.2@103.7@5.18@79.2@118.4@94.6@55.6@52.1@53.1@51.7@52.4@4.45@1.74@2.72@3.18@3.24@3.32@3.05@72.1@67.8@136.2@137.6@1.51@5.57@3.78@107.0@317@305@31.5@31.1@4.73@2.06@0.29@2.13@261@245@228@248@57.2@50.9@BLQ@58.95@0.52@65.9@35.5@35.4@37.8@46.5@53.5@50.5@62.8@62.2@34.1@10.3@101.4@99.7@5.71@5.50@229.5@295.6@121.3@150.6@199.5@65.5@65.1@66.4@2.20@2.21@3.02@2.77@66.5@72.6@135.1@315@328@325@6.04@7.66@6.64@7.04@257@258@233@263@76.4@91.9@17.9@20.7@54.9@54.8@47.5@19.3@14.1@27.9@12.4@100.2@101.3@6.26@6.10@6.55@6.37@6.05@124.1@96.9@53.7@171.9@68.8@1.70@1.75@3.95@62.7@66.3@138.5@5.76@339@5.59@5.84@172.0@164.0@6.76@7.19@2.08@4.89@2.75@206@190@200@59.8@49.5@48.3@48.9@61.3@5.54@562.3@280.6@258.5@273.5@360.9@391.2@63.8@1.50@1.41@3.77@3.44@70.2@136.4@138.7@139.8@0.89@23.5@20.8@89.2@333@1.44@2.81@2.71@182@170@169@186@47.8@49.7@46.4@50.7@10.72@12.3@11.5@11.1@14.9@42.5@51.1@49.1@57.4@19.1@20.5@18.8@12.1@102.7@169.9@118.1@66.6@88.0@83.6@84.0@81.2@2.94@2.91@2.99@3.73@140.9@139.4@137.8@141.4@0.73@0.75@6.25@359@362@3.98@3.90@1.72@2.87@50.2@32.5@2.17@2.12@18.0@18.3@45.8@48.4@45.6@48.5@48.8@21.7@102.9@99.6@5.72@5.79@166.2@245.0@127.0@262.6@408.2@80.7@4.15@1.53@1.65@3.55@3.35@74.3@136.3@4.39@5.73@78.9@80.8@4.99@161.0@5.26@5.46@1.96@1.81@2.92@216@230@34.6@10.94@33.3@14.6@12.0@15.8@127.5@216.6@90.1@83.1@112.6@87.8@3.67@0.24@0.22@105.2@102.0@283.5@290.6@538.4@233.7@159.7@414.6@75.9@72.4@71.6@3.15@136.7@139.3@136.8@134.6@136.6@0.62@1.60@6.56@7.91@7.21@7.87@6.62@329@148.0@6.22@22.76@5.43@20.08@3.53@3.87@232@243@193@209@46.40@44.9@44.6@95.0@78.8@16.0@107.1@106.2@105.6@5.42@123.3@73.7@76.0@107.9@69.7@60.6@5.77@5.19@5.55@6.06@3.65@3.54@3.82@3.70@68.1@141.7@141.8@141.1@141.9@6.32@7.26@7.35@163.0@2.84@3.22@2.93@1.80@1.92@1.86@51.5@55.4@49.3@54.3@17.17@48.2@20.2@105.7@5.58@5.67@5.97@77.5@75.7@52.6@64.2@55.2@7.31@62.4@63.5@61.5@134.7@109.9@97.3@351@32.1@3.61@3.86@177@173@50.1@61.8@46.6@55.7@48.7@55.5@77.4@13.7@104.5@186.0@222.7@209.7@311.0@103.8@62.9@59.9@0.53@70.1@340@31.9@4.02@2.65@208@219@57.9@46.8@15.07@73.4@66.0@7.37@6.84@7.46@7.44@8.30@340.0@156.5@113.1@82.5@5.39@5.47@5.33@5.30@6.08@2.14@244@267@34.2@51.6@104.3@143.4@105.5@74.6@64.5@7.06@5.65@66.9@6.93@4.95@1.84@400@252@281@282@56.6@32.8@8.48@77.2@105.1@100.6@6.98@6.82@159.5@133.2@116.2@183.2@160.9@120@5.02@1.83@63.7@65.8@140.3@6.91@7.38@4.58@10.44@8.27@2.74@221@202@71.3@72.7@110.4@61.7@3+@94.1@221.9@11.4@100.8@5.41@169.0@149.3@182.1@244.0@97.4@91.1@194.6@323.2@73.8@70.5@6.19@6.45@6.29@167.0@21.99@17.07@2.66@313@180@97.6@57.3@2.98@42.1@59.2@55.3@54.7@53.3@2.00@6.24@153.9@203.8@208.4@168.2@81.7@151.4@157.9@56.8@3.43@134.1@5.96@3.30@238@237@57.1@46.1@17.4@55.9@59.1@53.8@10.1@5.86@5.87@6.33@5.61@92.3@82.2@74.5@109.4@97.8@55.8@3.10@22.8@119.4@126.0@1.78@2.11@192@65.7@79.8@52.5@56.2@54.2@141.45@6.01@11.8@5.63@6.34@116.0@83.7@126.9@75.5@84.8@90.5@75.3@141.5@141.2@6.46@32.9@5.81@6.69@6.20@7.00@253@268@260@251@113.7@14.92@12.8@15.3@82.4@70.4@15.99@99.8@5.75@88.2@90.9@80.2@83.3@93.0@248.8@109.5@81.3@74.7@78.6@3.37@2.62@271@304@266@293@77.3@34.97@100.4@129.2@110.5@80.1@110.1@90.3@86.6@89.4@8.81@69.4@7.18@1.90@3.20@285@74.2@13.5@104.6@106.9@6.11@6.38@96.0@56.7@3.45@62.1@60.5@3.03@7.47@75.94@15.92@0.67@106.0@6.52@5.88@6.31@79.9@121.8@6.61@97.2@181@49.12@13.54@19.72@33.5@6.51@6.17@92.2@53.4@135.3@32.4@112.67@20.3@75.4@63.9@78.0@98.5@591.6@89.6@128.5@58.1@131.8@136.1@120.6@117.3@121.0@165.0@123.0@6.66@6.00@18.36@12.56@278@254@131.01@3.01@34.4@57.8@313.6@296.6@217.7@226.9@182.9@258.1@91.7@94.5@72.3@2.90@79.3@11.33@49.2@117.9@109.1@86.1@78.7@93.1@86.7@87.2@88.5@201@8.06@7.15@6.78@6.60@113.3@312.8@120.9@178.9@221.2@94.4@86.2@75.1@356@3.06@235@104.8@106.1@86.8@115.0@120.0@119.0@276@288@62.57@6.27@58.7@103.5@6.72@6.44@0.80@114.1@2.09@79.0@91.4@91.0@124.2@107.6@107.7@82.3@111.0@108.0@5.82@6.16@2.15@197@14.12@78.5@120.7@126.2@92.8@85.3@3.28@64.6@120.8@7.42@6.74@6.94@272@297@80.4@83.9@97.7@7.40@6.96@164.2@239.6@291.4@108.2@107.3@216.2@132.7@7.76@95.2@46.7@108.97@33.8@51.3@5.98@6.58@6.75@129.8@145.9@203.9@108.1@171.1@85.8@84.1@95.5@94.2@8.51@7.58@7.81@8.46@7.51@96.4@94.7@87.7@56.3@58.3@51.9@292.1@112.0@2.53@7.83@6.23@6.28@6.54@193.6@180.8@123.5@80.9@81.0@7.33@7.52@34.5@106.3@408.0@175.4@224.8@186.6@88.3@181.8@238.2@90.2@8.66@7.94@9.96@49.9@10.6@3.07@3.14@61.4@5.44@3.08@111.5@275.6@54.4@76.8@203.3@109.0@107.4@338.9@338.6@110.3@3.29@114.0@289@75.0@23.92@28.72@105.8@108.3@172.6@81.4@168.8@141.3@98.9@29.68@152.7@277.3@178.7@245.4@108.7@142.1@8.50@6.15@6.13@1.77@2669.5@153.3@362.5@147.5@115.6@193.1@87.9@8.23@188@59.4@46.2@270@51.2@54.95@12.09@47.2@106.5@357.2@142.7@142.3@26.67@194.1@5.10@140.8@174@8.43@117.8@201.4@169.1@47.7@115.4@6.99@10.78@355@97.1@9.17@49.6@6.43@109.8@153.6@151.6@90.8@90.7@117.1@6.89@167.6@159.4@154.7@6.47@7.10@7.16@6.53@7.02@99.2@96.1@144.6@213.8@361@6.49@8.13@93.5@96.5@7.75@8.38@9.51@8.58@7.29@8.64@92.6@187@118.2@124.7@133.1@133.8@149.8@347.5@325.7@130.8@152.9@380.1@287.4@80.5@142.5@94.9@17.93@93.3@130.2@8.70@8.29@8.33@98.0@133.9@131.1@133.4@76.5@108.83@121.9@240.5@240.6@221.6@152.3@166.0@78.2
114,ADLB,Analysis Parameter Variables for BDS Datasets,Num,Cond,BASE,Baseline Value,,float,5,2,BASE,,,,No,,"If AVISIT ne ""BASELINE"" or ABLFL=""Y"" then BASE = AVAL of the record with ABLFL=""Y"" within the subject and parameter",MT.ADLB.BASE,,,,Derived,,,
115,ADLB,Analysis Parameter Variables for BDS Datasets,Char,Perm,BASEC,Baseline Value (C),,text,8,,BASEC,,,,No,,"If AVISIT ne ""BASELINE"" or ABLFL=""Y"" then BASEC = AVALC of the record with ABLFL=""Y"" within the subject and parameter",MT.ADLB.BASEC,,,,Derived,,,
119,ADLB,Analysis Parameter Variables for BDS Datasets,Num,Perm,CHG,Change from Baseline,,float,6,2,CHG,,,,No,,AVAL - BASE,MT.ADLB.CHG,,,,Derived,,,
152,ADLB,Toxicity and Range Variables for BDS Datasets,Char,Perm,ANRIND,Analysis Reference Range Indicator,,text,6,,ANRIND,Reference Range Indicator,,,No,,"If ANRLO <= AVAL <=ANRHI then ANRIND = ""Normal"". Else if AVAL < ANRLO then ANRIND = ""Low"". Else if AVAL > ANRHI then ANRIND = ""High""",MT.ADLB.ANRIND,,,,Derived,,,NORMAL@HIGH@LOW
154,ADLB,Toxicity and Range Variables for BDS Datasets,Num,Perm,ANRLO,Analysis Normal Range Lower Limit,,float,4,2,ANRLO,,,,No,,,,,,,Predecessor,LB.LBSTNRLO,,
156,ADLB,Toxicity and Range Variables for BDS Datasets,Num,Perm,ANRHI,Analysis Normal Range Upper Limit,,float,5,2,ANRHI,,,,No,,,,,,,Predecessor,LB.LBSTNRHI,,
157,ADLB,Toxicity and Range Variables for BDS Datasets,Char,Perm,BNRIND,Baseline Reference Range Indicator,,text,6,,BNRIND,Reference Range Indicator,,,No,,Set to ANRIND of the baseline record identified by ABLFL,MT.ADLB.BNRIND,,,,Derived,,,NORMAL@LOW@HIGH
164,ADLB,Flag Variables for BDS Datasets,Char,Cond,ABLFL,Baseline Record Flag,,text,1,,ABLFL,No Yes Response - Y,,,No,,"Set to ""Y"" for the record with AVISIT=""Baseline"" and ARELTM closest to 0 within the subject and parameter",MT.ADLB.ABLFL,,,,Derived,,,Y
167,ADLB,Analysis Criterion y,Char,Perm,CRIT1,Analysis Criterion 1,,text,32,,CRIT1,Analysis Criterion 1 - General,,,No,,,,,,,Assigned,,,PCI value (outside normal range)
168,ADLB,Criterion y Evaluation Result Flag,Char,Cond,CRIT1FL,Criterion 1 Evaluation Result Flag,,text,1,,CRIT1FL,No Yes Response - Y,,,No,,,MT.ADLB.CRIT1FL,,,,Derived,,,N
172,ADLB,Analysis Descriptor Variables for BDS Datasets,Char,Cond,DTYPE,Derivation Type,,text,12,,DTYPE,Derivation Type - ADLB,,,No,"Set to ""MAXIMUM"" if AVISIT = ""Maximum post-baseline value""",,,,,,Assigned,,,MAXIMUM
173,ADLB,Flag Variables for BDS Datasets,Char,Cond,ANL01FL,Analysis Flag 01,,text,1,,ANL01FL,No Yes Response - Y,,,No,,"If AVISIT NE ""BASELINE"" then ANL01FL=""Y"". Else if AVISIT=""BASELINE"" then ANL01FL is set to ""Y"" for the record with ARELTM1 closest to 0 within the subject and parameter",MT.ADLB.ANL01FL,,,,Derived,,,Y
174,ADLB,SDTM Variable for Traceability,Num,,LBSEQ,Source Sequence Number,,integer,3,,LBSEQ,,,,No,,,,,,,Predecessor,LB.LBSEQ,,
175,ADLB,SDTM Variable for Traceability,Char,,LBSTRESC,Character Result/Finding in Std Format,,text,8,,LBSTRESC,,,,No,,,,,,,Predecessor,LB.LBSTRESC,,
176,ADLB,SDTM Variable for Traceability,Char,,LBSTRESU,Standard Units,,text,7,,LBSTRESU,Standard Units - ADLB,,,No,,,,,,,Predecessor,LB.LBSSTRESU,,
177,ADLB,SDTM Variable for Traceability,Char,,VISIT,Visit Name,,text,18,,VISIT,,,,No,,,,,,,Predecessor,LB.VISIT,,FINAL VISIT DAY 8@TREATMENT@SCREENING@FINAL VISIT DAY 15@FINAL VISIT DAY 29@FOLLOW-UP DAY 15@UNSCHEDULED 6.11@FINAL VISIT DAY 57@FOLLOW-UP DAY 29@UNSCHEDULED 8.11@UNSCHEDULED 7.01@FINAL VISIT DAY 85@FOLLOW-UP DAY 71@UNSCHEDULED 1.01@UNSCHEDULED 1.02@UNSCHEDULED 2.02@UNSCHEDULED 2.01@EARLY TERMINATION
178,ADLB,SDTM Variable for Traceability,Char,,LBTPT,Planned Time Point Name,,text,8,,LBTPT,Planned Time Point Name - LB,,,No,,,,,,,Predecessor,LB.LBTPT,,48 HOURS@24 HOURS@DAY -1
179,ADLB,SDTM Variable for Traceability,Char,,LBTPTREF,Time Point Reference,,text,31,,LBTPTREF,Time Point Reference - LB,,,No,,,,,,,Predecessor,LB.LBTPTREF,,END OF EXPOSURE TO STUDY DRUG@START OF EXPOSURE TO STUDY DRUG
1,ADMH,Identifier Variables for BDS Datasets,Char,Req,STUDYID,Study Identifier,,text,11,,STUDYID,Study Identifier,,,Yes,,,,,TRUE,TRUE,Predecessor,ADSL.STUDYID,,
2,ADMH,Identifier Variables for BDS Datasets,Char,Req,USUBJID,Unique Subject Identifier,,text,18,,USUBJID,,,,Yes,,,,,TRUE,,Predecessor,ADSL.USUBJID,,
3,ADMH,ADSL Identifier Variables,Char,Req,SUBJID,Subject Identifier for the Study,,text,3,,SUBJID,,,,No,,,,,TRUE,,Predecessor,ADSL.SUBJID,,
4,ADMH,Identifier Variables for BDS Datasets,Char,Perm,SITEID,Study Site Identifier,,text,2,,SITEID,Study Site Identifier,,,No,,,,,TRUE,TRUE,Predecessor,ADSL.SITEID,,
5,ADMH,ADSL Subject Demographics Variables,Num,Req,AGE,Age,,integer,2,,AGE,,,,No,,,,,TRUE,,Predecessor,ADSL.AGE,,
6,ADMH,ADSL Subject Demographics Variables,Char,Req,AGEU,Age Units,,text,5,,AGEU,Age Units,,,No,,,,,TRUE,TRUE,Predecessor,ADSL.AGEU,,YEARS
7,ADMH,ADSL Subject Demographics Variables,Char,Req,SEX,Sex,,text,1,,SEX,Sex,,,No,,,,,TRUE,TRUE,Predecessor,ADSL.SEX,,M@F
8,ADMH,ADSL Subject Demographics Variables,Char,Req,RACE,Race,,text,41,,RACE,Race,,,No,,,,,FALSE,TRUE,Predecessor,ADSL.RACE,,WHITE@ASIAN@OTHER@BLACK OR AFRICAN AMERICAN
9,ADMH,ADSL Population Indicator Variables,Char,Cond,SAFFL,Safety Population Flag,,text,1,,SAFFL,No Yes Response - N/Y,,,Yes,,,,,TRUE,TRUE,Predecessor,ADSL.SAFFL,,Y@N
10,ADMH,ADSL Population Indicator Variables (Sponsor-Defined),Char,,PKFL,Pharmacokinetic Analysis Population Flag,,text,1,,PKFL,No Yes Response,,,No,,,,,TRUE,TRUE,Predecessor,ADSL.PKFL,,Y
11,ADMH,Treatment Timing Variables for BDS (Taken from ADSL),Num,,TRTSDT,Date of First Exposure to Treatment,,integer,5,,TRTSDT,,YYMMDD10.,,No,,,,,TRUE,,Predecessor,ADSL.TRTSDT,,
12,ADMH,Treatment Timing Variables for BDS (Taken from ADSL),Num,,TRTSTM,Time of First Exposure to Treatment,,integer,5,,TRTSTM,,TIME5.,,No,,,,,TRUE,,Predecessor,ADSL.TRTSTM,,
13,ADMH,Treatment Timing Variables for BDS (Taken from ADSL),Num,,TRTSDTM,Datetime of First Exposure to Treatment,,integer,10,,TRTSDTM,,E8601DT16.,,No,,,,,TRUE,,Predecessor,ADSL.TRTSDTM,,
14,ADMH,Treatment Timing Variables for BDS (Taken from ADSL),Num,,TRTEDT,Date of Last Exposure to Treatment,,integer,5,,TRTEDT,,YYMMDD10.,,No,,,,,TRUE,,Predecessor,ADSL.TRTEDT,,
15,ADMH,Treatment Timing Variables for BDS (Taken from ADSL),Num,,TRTETM,Time of Last Exposure to Treatment,,integer,5,,TRTETM,,TIME5.,,No,,,,,TRUE,,Predecessor,ADSL.TRTETM,,
16,ADMH,Treatment Timing Variables for BDS (Taken from ADSL),Num,,TRTEDTM,Datetime of Last Exposure to Treatment,,integer,10,,TRTEDTM,,E8601DT16.,,No,,,,,TRUE,,Predecessor,ADSL.TRTEDTM,,
17,ADMH,Record-Level Treatment Variables for BDS Datasets ,Char,Cond,TRTP,Planned Treatment,,text,30,,TRTP,Planned/Actual Treatment ,,,No,,,,,TRUE,TRUE,Predecessor,ADSL.TRT01P,,Placebo@0.15 mg MEDI0618 (intravenous)@0.45 mg MEDI0618 (intravenous)@1.35 mg MEDI0618 (intravenous)@4 mg MEDI0618 (intravenous)@12 mg MEDI0618 (intravenous)@40 mg MEDI0618 (intravenous)@80 mg MEDI0618 (intravenous)@200 mg MEDI0618 (intravenous)@100 mg MEDI0618 (subcutaneous)@IV 0.45 mg MEDI0618@IV 1.35 mg MEDI0618@IV 4 mg MEDI0618@IV 12 mg MEDI0618@IV 40 mg MEDI0618@IV 100 mg MEDI0618@IV 200 mg MEDI0618
18,ADMH,Record-Level Treatment Variables for BDS Datasets (Sponsor-Defined),Char,,TRTPG1,Planned Pooled Treatment 1,,text,8,,TRTPG1,Planned/Actual Pooled Treatment,,,No,,,,,TRUE,TRUE,Predecessor,ADSL.TRT01PG1,,Placebo@MEDI0618
19,ADMH,Record-Level Treatment Variables for BDS Datasets ,Char,,TRTA,Actual Treatment,,text,30,,TRTA,Planned/Actual Treatment ,,,No,,,,,TRUE,TRUE,Predecessor,ADSL.TRT01A,,Placebo@0.15 mg MEDI0618 (intravenous)@0.45 mg MEDI0618 (intravenous)@1.35 mg MEDI0618 (intravenous)@4 mg MEDI0618 (intravenous)@12 mg MEDI0618 (intravenous)@40 mg MEDI0618 (intravenous)@80 mg MEDI0618 (intravenous)@200 mg MEDI0618 (intravenous)@100 mg MEDI0618 (subcutaneous)
20,ADMH,Record-Level Treatment Variables for BDS Datasets (Sponsor-Defined),Char,,TRTAG1,Actual Pooled Treatment 1,,text,8,,TRTAG1,Planned/Actual Pooled Treatment,,,No,,,,,TRUE,TRUE,Predecessor,ADSL.TRT01AG1,,Placebo@MEDI0618
21,ADMH,Grouping Variables for BDS (Sponsor-Defined),Char,,COHORT,Cohort ,,text,23,,COHORT,Cohort,,,No,,,,,TRUE,TRUE,Predecessor,ADSL.COHORT,,COHORT 1 (INTRAVENOUS)@COHORT 2 (INTRAVENOUS)@COHORT 3 (INTRAVENOUS)@COHORT 4 (INTRAVENOUS)@COHORT 5 (INTRAVENOUS)@COHORT 6 (INTRAVENOUS)@COHORT 7 (INTRAVENOUS)@COHORT 8 (INTRAVENOUS)@COHORT 9 (SUBCUTANEOUS)@COHORT2@COHORT3@COHORT4@COHORT5@COHORT6@COHORT7@COHORT8
22,ADMH,Grouping Variables for BDS (Sponsor-Defined),Char,,COHORTG1,Pooled Cohort Group 1,,text,24,,COHORTG1,Pooled Cohort Group 1,,,No,,,,,TRUE,TRUE,Predecessor,ADSL.COHORTG1,,COHORT 1 (INTRAVENOUS)@COHORT 2 (INTRAVENOUS)@COHORT 3 (INTRAVENOUS)@COHORT 4 (INTRAVENOUS)@COHORT 5-8 (INTRAVENOUS)@COHORT 9 (SUBCUTANEOUS)@COHORT2@COHORT3@COHORT4@COHORT 5-8
23,ADMH,Grouping Variables for BDS (Sponsor-Defined),Char,,COHORTG2,Pooled Cohort Group 2,,text,24,,COHORTG2,Pooled Cohort Group 2,,,No,,,,,TRUE,TRUE,Predecessor,ADSL.COHORTG2,,COHORT 1-8 (INTRAVENOUS)@COHORT 9 (SUBCUTANEOUS)
24,ADMH,OCCDS Identifier Variables,Num,Req,MHSEQ,Sequence Number,,integer,2,,MHSEQ,,,,Yes,,,,,TRUE,,Predecessor,MH.MHSEQ,,
25,ADMH,MedDRA Dictionary Coding Variables,Char,Req,MHTERM,Reported Term,,text,88,,MHTERM,,,,Yes,,,,,TRUE,,Predecessor,MH.MHTERM,,
26,ADMH,MedDRA Dictionary Coding Variables,Char,Cond,MHDECOD,Dictionary-Derived Term,,text,30,,MHDECOD,,,,No,,,,,TRUE,,Predecessor,MH.MHDECOD,,PLEASE ADD DICTIONARY_@_PLEASE ADD DICTIONARY_
27,ADMH,MedDRA Dictionary Coding Variables,Char,Cond,MHBODSYS,Body System or Organ Class,,text,67,,MHBODSYS,,,,No,,,,,TRUE,,Predecessor,MH.MHBODSYS,,PLEASE ADD DICTIONARY_@_PLEASE ADD DICTIONARY_
28,ADMH,MedDRA Dictionary Coding Variables,Num,Perm,MHBDSYCD,Body System or Organ Class Code,,integer,8,,MHBDSYCD,,,,No,,,,,TRUE,,Predecessor,MH.MHBDSYCD,,
29,ADMH,MedDRA Dictionary Coding Variables,Char,Cond,MHLLT,Lowest Level Term,,text,38,,MHLLT,,,,No,,,,,TRUE,,Predecessor,MH.MHLLT,,PLEASE ADD DICTIONARY_@_PLEASE ADD DICTIONARY_
30,ADMH,MedDRA Dictionary Coding Variables,Num,Perm,MHLLTCD,Lowest Level Term Code,,integer,8,,MHLLTCD,,,,No,,,,,TRUE,,Predecessor,MH.MHLLTCD,,
31,ADMH,MedDRA Dictionary Coding Variables,Num,Perm,MHPTCD,Preferred Term Code,,integer,8,,MHPTCD,,,,No,,,,,TRUE,,Predecessor,MH.MHPTCD,,
32,ADMH,MedDRA Dictionary Coding Variables,Char,Cond,MHHLT,High Level Term,,text,56,,MHHLT,,,,No,,,,,TRUE,,Predecessor,MH.MHHLT,,PLEASE ADD DICTIONARY_@_PLEASE ADD DICTIONARY_
33,ADMH,MedDRA Dictionary Coding Variables,Num,Perm,MHHLTCD,High Level Term Code,,integer,8,,MHHLTCD,,,,No,,,,,TRUE,,Predecessor,MH.MHHLTCD,,
34,ADMH,MedDRA Dictionary Coding Variables,Char,Cond,MHHLGT,High Level Group Term,,text,86,,MHHLGT,,,,No,,,,,TRUE,,Predecessor,MH.MHHLGT,,PLEASE ADD DICTIONARY_@_PLEASE ADD DICTIONARY_
35,ADMH,MedDRA Dictionary Coding Variables,Num,Perm,MHHLGTCD,High Level Group Term Code,,integer,8,,MHHLGTCD,,,,No,,,,,TRUE,,Predecessor,MH.MHHLGTCD,,
38,ADMH,Timing Variables,Char,Perm,MHSTDTC,Start Date/Time of Observation,,text,10,,MHSTDTC,,ISO 8601,,No,,,,,TRUE,,Predecessor,MH.MHSTDTC,,
39,ADMH,Timing Variables,Char,Cond,MHENDTC,End Date/Time of Observation,,text,10,,MHENDTC,,ISO 8601,,No,,,,,TRUE,,Predecessor,MH.MHENDTC,,
40,ADMH,,Char,,MHENRTPT,End Relative to Reference Time Point,,text,7,,MHENRTPT,STENRF,,,No,,,,,TRUE,TRUE,Predecessor,MH.MHENRTPT,,BEFORE@ONGOING@UNKNOWN
41,ADMH,,Char,,MHENTPT,End Reference Time Point,,text,9,,MHENTPT,End Reference Time Point - MH,,,No,,,,,TRUE,TRUE,Predecessor,MHENTPT,,SCREENING
42,ADMH,Other Categorization Variables,Char,Perm,ACAT1,Analysis Category 1,,text,23,,ACAT1,Analysis Category 1 - MH,,,No,,"If MHENRTPT = ""BEFORE"" then ACAT1 = ""PAST MEDICAL HISTORY"". Else if MHENRTPT = ""ONGOING"" then ACAT1 = ""CURRENT MEDICAL HISTORY"".",MT.ADMH.ACAT1,,TRUE,TRUE,Derived,,,PAST MEDICAL HISTORY@CURRENT MEDICAL HISTORY
43,ADMH,OCCDS Occurrence Flag Variables,Char,Perm,AOCCFL,1st Occurrence within Subject Flag,,text,1,,AOCCFL,No Yes Response - Y,,,No,,"Set to ""Y"" for the first record of the subject within each analysis category (ACAT1) after sorting by USUBJID, ACAT1 and start date of the condition (MHSTDTC)",MT.ADMH.AOCCFL,,TRUE,TRUE,Derived,,,Y
44,ADMH,OCCDS Occurrence Flag Variables,Char,Perm,AOCCSFL,1st Occurrence of SOC Flag,,text,1,,AOCCSFL,No Yes Response - Y,,,No,,"Set to ""Y"" for the first record of the subject within each combination of analysis cateorgy (ACAT1)  and body system  (MHBODSYS) after sorting by USUBJID, MHBODSYS, ACAT1 and start datetime of the condition (MHSTDTC)",MT.ADMH.AOCCSFL,,TRUE,TRUE,Derived,,,Y
45,ADMH,MedDRA Occurrence Flag Variables,Char,Perm,AOCCPFL,1st Occurrence of Preferred Term Flag,,text,1,,AOCCPFL,No Yes Response - Y,,,No,,"Set to ""Y"" for the first record of the subject within each combination of analysis category (ACAT1), body system (MHBODSYS) and dictionary-derived terms (MHDECOD) after sorting by USUBJID, MHBODSYS, MHDECOD and start datetime of the condition (MHSTDTC)",MT.ADMH.AOCCPFL,,TRUE,TRUE,Derived,,,Y
36,ADMH_not_used,MedDRA Dictionary Coding Variables,Char,Cond,MHSOC,Primary System Organ Class,,text,67,,MHSOC,,,,,,,,,TRUE,,Predecessor,MH.MHSOC,,PLEASE ADD DICTIONARY_@_PLEASE ADD DICTIONARY_
37,ADMH_not_used,MedDRA Dictionary Coding Variables,Num,Perm,MHSOCCD,Primary System Organ Class Code,,integer,8,,MHSOCCD,,,,,,,,,TRUE,,Predecessor,MH.MHSOCCD,,
31,ADMH_not_used,Timing Variables,Num,Cond,ASTDT,Analysis Start Date,,text,10,,,,,,,,,,,,,Derived,,,
32,ADMH_not_used,Timing Variables,Char,Cond,ASTDTF,Analysis Start Date Imputation Flag,,text,7,,,,,,,,,,,,,Derived,,,
37,ADMH_not_used,Timing Variables,Num,Cond,AENDT,Analysis End Date,,text,1,,,,,,,,,,,,,Derived,,,
38,ADMH_not_used,Timing Variables,Char,Cond,AENDTF,Analysis End Date Imputation Flag,,text,,,,,,,,,,,,,,Derived,,,
39,ADMH_not_used,Timing Variables,Num,Cond,ASTDY,Analysis Start Relative Day,,integer,,,,,,,,,,,,,,Derived,,,
40,ADMH_not_used,Timing Variables,Num,Perm,#NAME?,Study Day of Start of Observation,,integer,,,,,,,,,,,,,,Predecessor,,,
41,ADMH_not_used,Timing Variables,Num,Perm,AENDY,Analysis End Relative Day,,integer,,,,,,,,,,,,,,Derived,,,
42,ADMH_not_used,Timing Variables,Num,Perm,#NAME?,Study Day of End of Observation,,integer,,,,,,,,,,,,,,Predecessor,,,
43,ADMH_not_used,Timing Variables,Num,Perm,ADURN,Analysis Duration (N),,integer,,,,,,,,,,,,,,Derived,,,
44,ADMH_not_used,Timing Variables,Char,Cond,ADURU,Analysis Duration Units,,text,,,,,,,,,,,,,,Derived,,,
45,ADMH_not_used,Timing Variables,Char,Perm,#NAME?,Duration of XX,,text,,,,,,,,,,,,,,Predecessor,,,
46,ADMH_not_used,OCCDS Indicator Variables,Char,Cond,ANLzzFL,Analysis Flag zz,,text,,,,,,,,,,,,,,Derived,,,
1,ADPC,Identifier Variables for BDS Datasets,Char,Req,STUDYID,Study Identifier,,text,11,,STUDYID,Study Identifier,,,Yes,,,,,TRUE,TRUE,Predecessor,ADSL.STUDYID,,
2,ADPC,Identifier Variables for BDS Datasets,Char,Req,USUBJID,Unique Subject Identifier,,text,18,,USUBJID,,,,Yes,,,,,TRUE,,Predecessor,ADSL.USUBJID,,
3,ADPC,ADSL Identifier Variables,Char,Req,SUBJID,Subject Identifier for the Study,,text,3,,SUBJID,,,,No,,,,,TRUE,,Predecessor,ADSL.SUBJID,,
4,ADPC,Identifier Variables for BDS Datasets,Char,Perm,SITEID,Study Site Identifier,,text,2,,SITEID,Study Site Identifier,,,No,,,,,TRUE,TRUE,Predecessor,ADSL.SITEID,,
5,ADPC,ADSL Subject Demographics Variables,Num,Req,AGE,Age,,integer,2,,AGE,,,,No,,,,,TRUE,,Predecessor,ADSL.AGE,,
6,ADPC,ADSL Subject Demographics Variables,Char,Req,AGEU,Age Units,,text,5,,AGEU,Age Units,,,No,,,,,TRUE,TRUE,Predecessor,ADSL.AGEU,,YEARS
7,ADPC,ADSL Subject Demographics Variables,Char,Req,SEX,Sex,,text,1,,SEX,Sex,,,No,,,,,TRUE,TRUE,Predecessor,ADSL.SEX,,M@F
8,ADPC,ADSL Subject Demographics Variables,Char,Req,RACE,Race,,text,41,,RACE,Race,,,No,,,,,FALSE,TRUE,Predecessor,ADSL.RACE,,WHITE@BLACK OR AFRICAN AMERICAN@OTHER@ASIAN
9,ADPC,ADSL Population Indicator Variables,Char,Cond,SAFFL,Safety Population Flag,,text,1,,SAFFL,No Yes Response - N/Y,,,Yes,,,,,TRUE,TRUE,Predecessor,ADSL.SAFFL,,Y@N
10,ADPC,ADSL Population Indicator Variables (Sponsor-Defined),Char,,PKFL,Pharmacokinetic Analysis Population Flag,,text,1,,PKFL,No Yes Response - N/Y,,,No,,,,,TRUE,TRUE,Predecessor,ADSL.PKFL,,Y
11,ADPC,Treatment Timing Variables for BDS (Taken from ADSL),Num,,TRTSDT,Date of First Exposure to Treatment,,integer,5,,TRTSDT,,YYMMDD10.,,No,,,,,TRUE,,Predecessor,ADSL.TRTSDT,,
12,ADPC,Treatment Timing Variables for BDS (Taken from ADSL),Num,,TRTSTM,Time of First Exposure to Treatment,,integer,5,,TRTSTM,,TIME5.,,No,,,,,TRUE,,Predecessor,ADSL.TRTSTM,,
13,ADPC,Treatment Timing Variables for BDS (Taken from ADSL),Num,,TRTSDTM,Datetime of First Exposure to Treatment,,integer,10,,TRTSDTM,,E8601DT16.,,No,,,,,TRUE,,Predecessor,ADSL.TRTSDTM,,
14,ADPC,Treatment Timing Variables for BDS (Taken from ADSL),Num,,TRTEDT,Date of Last Exposure to Treatment,,integer,5,,TRTEDT,,YYMMDD10.,,No,,,,,TRUE,,Predecessor,ADSL.TRTEDT,,
15,ADPC,Treatment Timing Variables for BDS (Taken from ADSL),Num,,TRTETM,Time of Last Exposure to Treatment,,integer,5,,TRTETM,,TIME5.,,No,,,,,TRUE,,Predecessor,ADSL.TRTETM,,
16,ADPC,Treatment Timing Variables for BDS (Taken from ADSL),Num,,TRTEDTM,Datetime of Last Exposure to Treatment,,integer,10,,TRTEDTM,,E8601DT16.,,No,,,,,TRUE,,Predecessor,ADSL.TRTEDTM,,
17,ADPC,Record-Level Treatment Variables for BDS Datasets ,Char,Cond,TRTP,Planned Treatment,,text,30,,TRTP,Planned/Actual Treatment ,,,No,,,,,TRUE,TRUE,Predecessor,ADSL.TRT01P,,Placebo@0.15 mg MEDI0618 (intravenous)@0.45 mg MEDI0618 (intravenous)@1.35 mg MEDI0618 (intravenous)@4 mg MEDI0618 (intravenous)@12 mg MEDI0618 (intravenous)@40 mg MEDI0618 (intravenous)@100 mg MEDI0618 (intravenous)@200 mg MEDI0618 (intravenous)@100 mg MEDI0618 (subcutaneous)@IV 0.45 mg MEDI0618@IV 1.35 mg MEDI0618@IV 4 mg MEDI0618@IV 12 mg MEDI0618@IV 40 mg MEDI0618@IV 100 mg MEDI0618@IV 200 mg MEDI0618
18,ADPC,Record-Level Treatment Variables for BDS Datasets (Sponsor-Defined),Char,,TRTPG1,Planned Pooled Treatment 1,,text,8,,TRTPG1,Planned/Actual Pooled Treatment,,,No,,,,,TRUE,TRUE,Predecessor,ADSL.TRT01PG1,,Placebo@MEDI0618
19,ADPC,Record-Level Treatment Variables for BDS Datasets ,Char,,TRTA,Actual Treatment,,text,30,,TRTA,Planned/Actual Treatment ,,,No,,,,,TRUE,TRUE,Predecessor,ADSL.TRT01A,,Placebo@0.15 mg MEDI0618 (intravenous)@0.45 mg MEDI0618 (intravenous)@1.35 mg MEDI0618 (intravenous)@4 mg MEDI0618 (intravenous)@12 mg MEDI0618 (intravenous)@40 mg MEDI0618 (intravenous)@80 mg MEDI0618 (intravenous)@200 mg MEDI0618 (intravenous)@100 mg MEDI0618 (subcutaneous)
20,ADPC,Record-Level Treatment Variables for BDS Datasets (Sponsor-Defined),Char,,TRTAG1,Actual Pooled Treatment 1,,text,8,,TRTAG1,Planned/Actual Pooled Treatment,,,No,,,,,TRUE,TRUE,Predecessor,ADSL.TRT01AG1,,Placebo@MEDI0618
21,ADPC,Record-Level Dose Variables for BDS Datasets,Num,,DOSEP,Planned Treatment Dose,,float,4,2,DOSEP,,,,No,,,,,TRUE,,Predecessor,ADSL.DOSEP,,
22,ADPC,Record-Level Dose Variables for BDS Datasets,Num,,DOSEA,Actual Treatment Dose,,float,4,2,DOSEA,,,,No,,,,,TRUE,,Predecessor,ADSL.DOSEA,,
23,ADPC,Record-Level Dose Variables for BDS Datasets,Char,,DOSEU,Treatment Dose Units,,text,2,,DOSEU,Dose Units,,,No,,,,,TRUE,TRUE,Predecessor,ADSL.DOSEU,,
25,ADPC,Sponsor-defined variable,Char,,ROUTE,Route of Administration,,text,12,,ROUTE,Route of Administration,,,No,,,,,TRUE,TRUE,Predecessor,ADSL.ROUTE,,
26,ADPC,Grouping Variables for BDS (Sponsor-Defined),Char,,COHORT,Cohort ,,text,23,,COHORT,Cohort,,,No,,,,,TRUE,TRUE,Predecessor,ADSL.COHORT,,COHORT 1 (INTRAVENOUS)@COHORT 2 (INTRAVENOUS)@COHORT 3 (INTRAVENOUS)@COHORT 4 (INTRAVENOUS)@COHORT 5 (INTRAVENOUS)@COHORT 6 (INTRAVENOUS)@COHORT 7 (INTRAVENOUS)@COHORT 8 (INTRAVENOUS)@COHORT 9 (SUBCUTANEOUS)@COHORT2@COHORT3@COHORT4@COHORT5@COHORT6@COHORT7@COHORT8
27,ADPC,Grouping Variables for BDS (Sponsor-Defined),Char,,COHORTG1,Pooled Cohort Group 1,,text,24,,COHORTG1,Pooled Cohort Group 1,,,No,,,,,TRUE,TRUE,Predecessor,ADSL.COHORTG1,,COHORT 1 (INTRAVENOUS)@COHORT 2 (INTRAVENOUS)@COHORT 3 (INTRAVENOUS)@COHORT 4 (INTRAVENOUS)@COHORT 5-8 (INTRAVENOUS)@COHORT 9 (SUBCUTANEOUS)@COHORT2@COHORT3@COHORT4@COHORT 5-8
28,ADPC,Grouping Variables for BDS (Sponsor-Defined),Char,,COHORTG2,Pooled Cohort Group 2,,text,24,,COHORTG2,Pooled Cohort Group 2,,,No,,,,,TRUE,TRUE,Predecessor,ADSL.COHORTG2,,COHORT 1-8 (INTRAVENOUS)@COHORT 1-8
29,ADPC,Sponsor-defined variable,Num,,WEIGHTBL,Baseline Weight (kg),,float,5,1,WEIGHTBL,,,,No,,,,,TRUE,,Predecessor,ADSL.WEIGHTBL,,
30,ADPC,Sponsor-defined variable,Char,,ADAPOSFL,ADA Positive at any Visit,,text,1,,ADAPOSFL,No Yes Response - N/Y,,,No,,,,,TRUE,TRUE,Predecessor,ADSL.ADAPOSFL,,
31,ADPC,Timing Variables for BDS Datasets,Num,Perm,ADT,Analysis Date,,integer,5,,ADT,,YYMMDD10.,,No,,Date part of PC.PCDTC converted to numeric SAS date,MT.ADPC.ADT,,TRUE,,Derived,,,
32,ADPC,Timing Variables for BDS Datasets,Num,Perm,ATM,Analysis Time,,integer,5,,ATM,,TIME5.,,No,,Time part of PC.PCDTC converted to numeric SAS time,MT.ADPC.ATM,,TRUE,,Derived,,,
33,ADPC,Timing Variables for BDS Datasets,Num,Perm,ADTM,Analysis Datetime,,integer,10,,ADTM,,E8601DT16.,,No,,PC.PCDTC converted to numeric SAS date,MT.ADPC.ADTM,,TRUE,,Derived,,,
34,ADPC,Timing Variables for BDS Datasets,Num,Perm,ADY,Analysis Relative Day ,,integer,2,,ADY,,,,No,,If ADT >= TRTSDT then ADY = ADT - TRTSDT + 1. Else if ADT<TRTSDT then ADY = ADT - TRTSDT,MT.ADPC.ADY,,TRUE,,Derived,,,
43,ADPC,Timing Variables for BDS Datasets,Char,Cond,AVISIT,Analysis Visit ,,text,9,,AVISIT,Analysis Visits - ADPC,,,No,,"If ADTM <= TRTSDTM then AVISIT = ""Baseline"". Else if PC.VISIT=""TREATMENT"" then AVISIT = ""Treatment"". Else AVISIT = ""DAY XX"" with XX being the prescribed study day of PC.VISIT",MT.ADPC.AVISIT,,TRUE,TRUE,Derived,,,Treatment@Baseline@Day 8@Day 15@Day 22@Day 29@Day 43@Day 57@Day 71@Day 85@Early termination@Unscheduled 2.01
44,ADPC,Timing Variables for BDS Datasets,Num,Perm,AVISITN,Analysis Visit (N),,integer,2,,AVISITN,Analysis Visits (N) - ADPC,,,No,Numeric code for AVISITN,Numeric code for AVISITN,,,TRUE,TRUE,Assigned,,,
45,ADPC,Timing Variables for BDS Datasets,Char,Cond,ATPT,Analysis Timepoint,,text,8,,ATPT,Analysis Timepoints - ADPC,,,Yes,,"If VISITNUM=1 then ATPT = ""Pre-dose"". Else if PC.PCTPT=""60 MIN"" then ATPT = ""1 hour"". Else if PC.PCTPT ^= MISSING then ATPT = lowcase(PC.PCTPT). ",MT.ADPC.ATPT,,TRUE,TRUE,Derived,,,8 hours@12 hours@24 hours@48 hours@Pre-dose@1 hour@15 min@30 min@45 min@2 hours@4 hours
46,ADPC,Timing Variables for BDS Datasets,Num,Perm,ATPTN,Analysis Timepoint (N),,integer,5,,ATPTN,Analysis Timepoints (N) - ADPC,,,No,Numeric code for ATPT,,,,TRUE,TRUE,Assigned,,,
47,ADPC,Timing Variables for BDS Datasets,Char,Perm,ATPTREF,Analysis Timepoint Reference,,text,17,,ATPTREF,Analysis Timepoint Reference,,,No,,"If PC.PCTPTREF=""START OF EXPOSURE TO STUDY DRUG"" or VISITNUM=1  then ATPTREF = ""Start of exposure"". Else if PC.PCTPTREF=""END OF EXPOSURE TO STUDY DRUG"" then ATPTREF = ""End of exposure""",MT.ADPC.ATPTREF,,TRUE,TRUE,Derived,,,End of exposure@Start of exposure
48,ADPC,Timing Variables for BDS Datasets (Sponsor-Defined),Num,,ARFTDTM,Anchor Timepoint for Analysis Rel. Time,,integer,10,,ARFTDTM,,E8601DT16.,,No,,"If PC.PCTPTREF=""START OF TREATMENT"" or VISITNUM=1 then ARFTDTM = TRTSDTM. Else if PC.PCTPTREF=""END OF TREATMENT"" then ARFTDTM = TRTEDTM",MT.ADPC.ARFTDTM,,TRUE,,Derived,,,
49,ADPC,Timing Variables for BDS Datasets,Num,Perm,ARELTM,Analysis Relative Time,,integer,6,,ARELTM,,TIME5.,,No,,ARELTM = ADTM - ARFTDTM,MT.ADPC.ARELTM,,TRUE,,Derived,,,
50,ADPC,Timing Variables for BDS Datasets,Char,Perm,ARELTMU,Analysis Relative Time Unit,,text,5,,ARELTMU,Analysis Relative Time Unit - ADPC,,,No,Refers to display format which was chosen to be consistent with ATPTN.,,,,TRUE,TRUE,Assigned,,,HH:MM
104,ADPC,Analysis Parameter Variables for BDS Datasets,Char,Req,PARAM,Parameter ,,text,30,,PARAM,Analysis Parameter - ADPC,,,Yes,,,,,TRUE,TRUE,Assigned,,,MEDI0618 concentration (ug/mL)@Diastolic Blood Pressure (mmHg)@Pulse Rate (beats/min)@Respiratory Rate (breaths/min)@Systolic Blood Pressure (mmHg)@Temperature (C)
105,ADPC,Analysis Parameter Variables for BDS Datasets,Char,Req,PARAMCD,Parameter Code,,text,8,,PARAMCD,Test Category PC,,,Yes,,,,,TRUE,TRUE,Predecessor,PC.PCTESTCD,,MEDI0618@DIABP@PULSE@RESP@SYSBP@TEMP
110,ADPC,Analysis Parameter Variables for BDS Datasets,Num,Cond,AVAL,Analysis Value,,float,6,4,AVAL,,,,Yes,,"If PC.PCSTRESN GE PC.PCLLOQ then AVAL = PC.PCSTRESN. Else if PC.PCSTRESC=""BLQ"" then AVALC = PC.PCLLOQ",,,TRUE,,Derived,,,
111,ADPC,Analysis Parameter Variables for BDS Datasets,Num,,LNAVAL,Natural Logarithm of Analysis Value,,float,12,10,LNAVAL,,6.3,,No,,LNAVAL = log(AVAL),,,TRUE,,Derived,,,
112,ADPC,Analysis Descriptor Variables for BDS Datasets,Char,Cond,DTYPE,Derivation Type,,text,4,,DTYPE,Derivation Type - ADPC,,,No,"Set to ""LLOQ"" if PCSTRESC=""BLQ"".",,,,TRUE,TRUE,Assigned,,,LLOQ
113,ADPC,SDTM Variable for Listing,Char,,SAMPCOM,Sample Comment,,text,14,,SAMPCOM,,,,No,,,,,TRUE,,Predecessor,PC.SAMPCOM,,
184,ADPC,SDTM Variable for Traceability,Num,,PCSEQ,Source Sequence Number,,integer,2,,PCSEQ,,,,No,,,,,TRUE,,Predecessor,PC.PCSEQ,,
185,ADPC,SDTM Variable for Traceability,Char,,PCSTRESC,Result or Finding in Standard Format,,text,6,,PCSTRESC,,,,No,,,,,TRUE,,Predecessor,PC.PCSTRESC,,BLQ@0.0346@0.0379@0.0424@0.0347@0.0338@0.0476@0.135@0.117@0.107@0.0712@0.147@0.126@0.108@0.0789@0.144@0.124@0.112@0.0906@0.0621@0.134@0.454@0.382@0.355@0.319@0.517@0.0898@0.0339@0.331@0.318@0.279@0.209@0.317@0.059@0.278@0.275@0.231@0.182@0.335@0.0636@0.375@0.361@0.350@0.237@0.451@0.0985@0.0418@0.376@0.366@0.329@0.267@0.424@0.0782@0.264@0.235@1.37@0.145@0.298@0.0349@0.506@0.456@0.453@0.343@0.513@0.142@0.051@0.633@0.574@0.516@0.437@0.725@0.161@0.0683@0.945@0.865@0.716@1.02@0.184@0.0722@0.0387@1.19@1.04@0.761@1.33@0.270@0.106@0.0495@1.11@1.03@0.964@0.717@1.18@0.129@0.0582@0.731@0.658@0.837@0.489@0.931@0.152@0.0549@3.16@2.77@2.79@2.20@3.80@0.783@0.128@0.0699@3.14@2.82@2.53@1.99@3.75@0.772@0.149@0.0896@0.0376@4.24@3.76@9.61@2.71@4.98@0.459@0.205@0.122@0.0465@2.66@2.49@2.52@1.72@3.44@0.599@0.240@0.105@0.0540@3.42@3.69@3.11@2.57@4.03@0.993@0.433@0.225@0.120@3.38@3.23@42.8@1.98@4.28@0.337@0.189@0.115@0.0401@14.2@13.4@14.7@11.2@17.9@5.54@3.31@1.81@1.00@0.359@0.151@0.0591@13.2@12.0@11.5@9.67@43.6@4.88@2.13@0.921@0.508@0.148@0.0579@14.0@13.0@12.5@10.5@15.3@4.80@2.68@1.40@0.832@0.280@0.133@0.0608@0.0333@13.3@11.3@10.0@15.8@4.23@2.16@0.938@0.566@0.179@0.0757@0.0352@18.5@5.80@3.27@1.73@0.953@0.306@0.0982@13.7@11.0@15.5@4.93@0.585@0.0796@0.0359@28.7@26.9@25.8@20.7@32.6@11.1@6.43@4.90@2.63@0.942@0.168@0.0843@NRR@28.8@25.1@22.0@31.5@6.99@4.17@2.70@0.911@0.344@0.160@0.0766@22.6@22.8@22.4@19.1@27.4@12.7@7.12@5.47@3.56@1.83@0.808@0.440@0.271@23.5@23.8@18.9@17.2@22.7@11.6@7.13@4.47@2.69@0.992@0.166@27.9@25.4@29.9@21.8@29.3@6.58@4.16@2.44@0.838@0.330@0.0817@24.8@22.5@18.8@11.9@7.83@5.36@3.06@0.492@0.248@59.3@56.9@56.4@46.4@67.4@19.7@16.3@4.66@2.42@0.826@49.5@46.3@47.6@37.7@62.2@24.6@17.0@9.84@5.02@2.24@1.07@0.520@50.9@48.3@51.2@39.3@61.4@25.7@5.72@2.76@1.38@0.744@54.6@49.2@50.1@42.1@62.6@19.4@12.9@9.29@5.23@2.31@0.977@0.472@49.7@45.1@36.2@55.1@21.1@17.6@13.9@10.7@6.67@3.39@1.63@0.919@48.6@42.0@36.4@56.2@9.03@5.60@2.22@0.869@0.850@1.56@2.90@6.18@8.52@5.15@1.75@0.638@0.258@0.0630@1.29@5.07@7.08@4.62@3.08@0.664@3.22@4.29@5.27@7.59@6.45@5.63@2.33@0.682@0.251@0.0574@2.99@4.51@4.71@2.89@0.0545@1.67@3.49@4.94@6.44@5.68@4.46@2.84@1.13@0.478@0.228@0.681@1.22@1.88@5.76@3.47@0.983@0.300@0.0456
186,ADPC,SDTM Variable for Traceability,Char,,PCSTRESU,Standard Units,,text,4,,PCSTRESU,UNIT3,,,No,,,,,TRUE,TRUE,Predecessor,PC.PCSTRESU,,mg/L
187,ADPC,SDTM Variable for Traceability,Char,,VISIT,Visit Name,,text,18,,VISIT,,,,No,,,,,TRUE,,Predecessor,PC.VISIT,,TREATMENT@FINAL VISIT DAY 8@FOLLOW-UP DAY 8@FINAL VISIT DAY 15@FOLLOW-UP DAY 15@FOLLOW-UP DAY 22@FINAL VISIT DAY 29@FOLLOW-UP DAY 29@FOLLOW-UP DAY 43@FINAL VISIT DAY 57@FOLLOW-UP DAY 57@FOLLOW-UP DAY 71@FINAL VISIT DAY 85@EARLY TERMINATION@SCREENING@UNSCHEDULED 2.01@UNSCHEDULED 1.01@UNSCHEDULED 1.02
189,ADPC,SDTM Variable for Traceability,Char,,PCTPT,Planned Time Point Name,,text,8,,PCTPT,,,,No,,,,,TRUE,,Predecessor,PC.VSTPT,,8 HOURS@12 HOURS@24 HOURS@48 HOURS@PRE-DOSE@60 MIN@DAY -1@15 MIN@30 MIN@45 MIN@1 HOUR@2 HOURS@4 HOURS
190,ADPC,SDTM Variable for Traceability,Char,,PCTPTREF,Time Point Reference,,text,31,,PCTPTREF,,,,No,,,,,TRUE,,Predecessor,PC.PCTPTREF,,END OF EXPOSURE TO STUDY DRUG@START OF EXPOSURE TO STUDY DRUG@START OF TREATMENT@END OF TREATMENT
191,ADPC,SDTM Variable for Traceability,Char,,PCDTC,Date/Time of Measurements,,text,16,,PCDTC,,ISO 8601,,No,,,,,TRUE,,Predecessor,PC.PCDTC,,
1,ADPP,Identifier Variables for BDS Datasets,Char,Req,STUDYID,Study Identifier,,text,11,,STUDYID,Study Identifier,,,Yes,,,,,TRUE,TRUE,Predecessor,ADSL.STUDYID,,
2,ADPP,Identifier Variables for BDS Datasets,Char,Req,USUBJID,Unique Subject Identifier,,text,18,,USUBJID,,,,Yes,,,,,TRUE,,Predecessor,ADSL.USUBJID,,
3,ADPP,ADSL Identifier Variables,Char,Req,SUBJID,Subject Identifier for the Study,,text,3,,SUBJID,,,,No,,,,,TRUE,,Predecessor,ADSL.SUBJID,,
4,ADPP,Identifier Variables for BDS Datasets,Char,Perm,SITEID,Study Site Identifier,,text,2,,SITEID,Study Site Identifier,,,No,,,,,TRUE,TRUE,Predecessor,ADSL.SITEID,,
5,ADPP,ADSL Subject Demographics Variables,Num,Req,AGE,Age,,integer,2,,AGE,,,,No,,,,,TRUE,,Predecessor,ADSL.AGE,,
6,ADPP,ADSL Subject Demographics Variables,Char,Req,AGEU,Age Units,,text,5,,AGEU,Age Units,,,No,,,,,TRUE,TRUE,Predecessor,ADSL.AGEU,,YEARS
7,ADPP,ADSL Subject Demographics Variables,Char,Req,SEX,Sex,,text,1,,SEX,Sex,,,No,,,,,TRUE,TRUE,Predecessor,ADSL.SEX,,M@F
8,ADPP,ADSL Subject Demographics Variables,Char,Req,RACE,Race,,text,41,,RACE,Race,,,No,,,,,FALSE,TRUE,Predecessor,ADSL.RACE,,WHITE@BLACK OR AFRICAN AMERICAN@OTHER@ASIAN
9,ADPP,ADSL Population Indicator Variables,Char,Cond,SAFFL,Safety Population Flag,,text,1,,SAFFL,No Yes Response - N/Y,,,Yes,,,,,TRUE,TRUE,Predecessor,ADSL.SAFFL,,Y@N
10,ADPP,ADSL Population Indicator Variables (Sponsor-Defined),Char,,PKFL,Pharmacokinetic Analysis Population Flag,,text,1,,PKFL,No Yes Response - N/Y,,,No,,,,,TRUE,TRUE,Predecessor,ADSL.PKFL,,Y
11,ADPP,Treatment Timing Variables for BDS (Taken from ADSL),Num,,TRTSDT,Date of First Exposure to Treatment,,integer,5,,TRTSDT,,YYMMDD10.,,No,,,,,TRUE,,Predecessor,ADSL.TRTSDT,,
12,ADPP,Treatment Timing Variables for BDS (Taken from ADSL),Num,,TRTSTM,Time of First Exposure to Treatment,,integer,5,,TRTSTM,,TIME5.,,No,,,,,TRUE,,Predecessor,ADSL.TRTSTM,,
13,ADPP,Treatment Timing Variables for BDS (Taken from ADSL),Num,,TRTSDTM,Datetime of First Exposure to Treatment,,integer,10,,TRTSDTM,,E8601DT16.,,No,,,,,TRUE,,Predecessor,ADSL.TRTSDTM,,
14,ADPP,Treatment Timing Variables for BDS (Taken from ADSL),Num,,TRTEDT,Date of Last Exposure to Treatment,,integer,5,,TRTEDT,,YYMMDD10.,,No,,,,,TRUE,,Predecessor,ADSL.TRTEDT,,
15,ADPP,Treatment Timing Variables for BDS (Taken from ADSL),Num,,TRTETM,Time of Last Exposure to Treatment,,integer,5,,TRTETM,,TIME5.,,No,,,,,TRUE,,Predecessor,ADSL.TRTETM,,
16,ADPP,Treatment Timing Variables for BDS (Taken from ADSL),Num,,TRTEDTM,Datetime of Last Exposure to Treatment,,integer,10,,TRTEDTM,,E8601DT16.,,No,,,,,TRUE,,Predecessor,ADSL.TRTEDTM,,
17,ADPP,Record-Level Treatment Variables for BDS Datasets ,Char,Cond,TRTP,Planned Treatment,,text,30,,TRTP,Planned/Actual Treatment ,,,No,,,,,TRUE,TRUE,Predecessor,ADSL.TRT01P,,Placebo@0.15 mg MEDI0618 (intravenous)@0.45 mg MEDI0618 (intravenous)@1.35 mg MEDI0618 (intravenous)@4 mg MEDI0618 (intravenous)@12 mg MEDI0618 (intravenous)@40 mg MEDI0618 (intravenous)@100 mg MEDI0618 (intravenous)@200 mg MEDI0618 (intravenous)@100 mg MEDI0618 (subcutaneous)@IV 0.45 mg MEDI0618@IV 1.35 mg MEDI0618@IV 4 mg MEDI0618@IV 12 mg MEDI0618@IV 40 mg MEDI0618@IV 100 mg MEDI0618@IV 200 mg MEDI0618
18,ADPP,Record-Level Treatment Variables for BDS Datasets (Sponsor-Defined),Char,,TRTPG1,Planned Pooled Treatment 1,,text,8,,TRTPG1,Planned/Actual Pooled Treatment,,,No,,,,,TRUE,TRUE,Predecessor,ADSL.TRT01PG1,,Placebo@MEDI0618
19,ADPP,Record-Level Treatment Variables for BDS Datasets ,Char,,TRTA,Actual Treatment,,text,30,,TRTA,Planned/Actual Treatment ,,,No,,,,,TRUE,TRUE,Predecessor,ADSL.TRT01A,,Placebo@0.15 mg MEDI0618 (intravenous)@0.45 mg MEDI0618 (intravenous)@1.35 mg MEDI0618 (intravenous)@4 mg MEDI0618 (intravenous)@12 mg MEDI0618 (intravenous)@40 mg MEDI0618 (intravenous)@80 mg MEDI0618 (intravenous)@200 mg MEDI0618 (intravenous)@100 mg MEDI0618 (subcutaneous)
20,ADPP,Record-Level Treatment Variables for BDS Datasets (Sponsor-Defined),Char,,TRTAG1,Actual Pooled Treatment 1,,text,8,,TRTAG1,Planned/Actual Pooled Treatment,,,No,,,,,TRUE,TRUE,Predecessor,ADSL.TRT01AG1,,Placebo@MEDI0618
27,ADPP,Record-Level Dose Variables for BDS Datasets,Num,,DOSEP,Planned Treatment Dose,,float,4,2,DOSEP,,,,No,,,,,TRUE,,Predecessor,ADSL.DOSEP,,
28,ADPP,Record-Level Dose Variables for BDS Datasets,Num,,DOSEA,Actual Treatment Dose,,float,4,2,DOSEA,,,,No,,,,,TRUE,,Predecessor,ADSL.DOSEA,,
29,ADPP,Record-Level Dose Variables for BDS Datasets,Char,,DOSEU,Treatment Dose Units,,text,2,,DOSEU,Dose Units,,,No,,,,,TRUE,TRUE,Predecessor,ADSL.DOSEU,,
30,ADPP,Sponsor-defined variable,Num,,LNDOSE,Natural Log of Actual Treatment Dose,,float,12,10,LNDOSE,,5.2,,No,,,,,TRUE,,Predecessor,ADSL.LNDOSE,,
31,ADPP,Sponsor-defined variable,Char,,ROUTE,Route of Administration,,text,12,,ROUTE,Route of Administration,,,No,,,,,TRUE,TRUE,Predecessor,ADSL.ROUTE,,
32,ADPP,Grouping Variables for BDS (Sponsor-Defined),Char,,COHORT,Cohort ,,text,23,,COHORT,Cohort,,,No,,,,,TRUE,TRUE,Predecessor,ADSL.COHORT,,COHORT 1 (INTRAVENOUS)@COHORT 2 (INTRAVENOUS)@COHORT 3 (INTRAVENOUS)@COHORT 4 (INTRAVENOUS)@COHORT 5 (INTRAVENOUS)@COHORT 6 (INTRAVENOUS)@COHORT 7 (INTRAVENOUS)@COHORT 8 (INTRAVENOUS)@COHORT 9 (SUBCUTANEOUS)@COHORT2@COHORT3@COHORT4@COHORT5@COHORT6@COHORT7@COHORT8
33,ADPP,Grouping Variables for BDS (Sponsor-Defined),Char,,COHORTG1,Pooled Cohort Group 1,,text,24,,COHORTG1,Pooled Cohort Group 1,,,No,,,,,TRUE,TRUE,Predecessor,ADSL.COHORTG1,,COHORT 1 (INTRAVENOUS)@COHORT 2 (INTRAVENOUS)@COHORT 3 (INTRAVENOUS)@COHORT 4 (INTRAVENOUS)@COHORT 5-8 (INTRAVENOUS)@COHORT 9 (SUBCUTANEOUS)@COHORT2@COHORT3@COHORT4@COHORT 5-8
34,ADPP,Grouping Variables for BDS (Sponsor-Defined),Char,,COHORTG2,Pooled Cohort Group 2,,text,24,,COHORTG2,Pooled Cohort Group 2,,,No,,,,,TRUE,TRUE,Predecessor,ADSL.COHORTG2,,COHORT 1-8 (INTRAVENOUS)@COHORT 1-8
35,ADPP,Sponsor-defined variable,Char,,ADAPOSFL,ADA Positive at any Visit,,text,1,,ADAPOSFL,No Yes Response - N/Y,,,No,,,,,TRUE,TRUE,Predecessor,ADSL.ADAPOSFL,,
36,ADPP,Sponsor-defined variable,Num,,WEIGHTBL,Baseline Weight (kg),,float,4,1,WEIGHTBL,,,,No,,,,,TRUE,,Predecessor,ADSL.WEIGHTBL,,
37,ADPP,Sponsor-defined variable,Num,,LNWGHTBL,Natural Log of Baseline Weight (kg),,float,12,10,LNWGHTBL,,4.2,,No,,,,,TRUE,,Predecessor,ADSL.LNWGHTBL,,
38,ADPP,Analysis Parameter Variables for BDS Datasets,Char,Req,PARAM,Parameter ,,text,36,,PARAM,PK Analysis Parameters,,,Yes,,Concatenation of PP.PPTEST and PP.PPSTRESU,MT.ADPP.PARAM,,TRUE,TRUE,Derived,,,
39,ADPP,Analysis Parameter Variables for BDS Datasets,Char,Req,PARAMCD,Parameter Code,,text,7,,PARAMCD,PK Parameters Code,,,Yes,,,,,TRUE,TRUE,Predecessor,PP.PPTESTCD,,
40,ADPP,Analysis Parameter Variables for BDS Datasets,Num,Cond,AVAL,Analysis Value,,float,12,10,AVAL,,8.4,,No,,,,,TRUE,,Predecessor,PP.PPSTRESN,,
41,ADPP,Sponsor-defined variable,Num,,LNAVAL,Natural Log of Analysis Value,,float,12,10,LNAVAL,,6.3,,No,,LNAVAL = ln(AVAL),MT.ADPP.LNAVAL,,TRUE,,Derived,,,
42,ADPP,Sponsor-defined variable,Num,,LNDNAVAL,Natural Log of Dose-Norm. Anal. Value,,float,12,10,LNDNAVAL,,6.3,,No,,LNDNAVAL = ln(AVAL/DOSEA),MT.ADPP.LNDNAVAL,,TRUE,,Derived,,,
43,ADPP,,,,DTYPE,Derivation Type,,text,4,,DTYPE,Derivation Type - ADPC,,,No,"Set to ""LLOQ"" if PCSTRESC=""BLQ"".",,,Assigned,,,LLOQ,,,
44,ADPP,SDTM Variable for Traceability,Num,,PPSEQ,Source Sequence Number,,integer,2,,PPSEQ,,,,No,,,,,TRUE,,Predecessor,PP.PPSEQ,,
45,ADPP,SDTM Variable for Traceability,Char,,PPSTRESC,Result or Finding in Standard Format,,text,18,,PPSTRESC,,,,No,,,,,TRUE,,Predecessor,PP.PPSTRESC,,
46,ADPP,SDTM Variable for Traceability,Char,,PPSTRESU,Standard Units,,text,9,,PPSTRESU,PK Units of Measure,,,No,,,,,TRUE,TRUE,Predecessor,PP.PPSTRESU,,
1,ADSL,ADSL Identifier Variables,Char,Req,STUDYID,Study Identifier,,text,11,,STUDYID,Study Identifier,,,Yes,,,,,TRUE,,Predecessor,DM.STUDYID,,
2,ADSL,ADSL Identifier Variables,Char,Req,USUBJID,Unique Subject Identifier,,text,18,,USUBJID,,,,Yes,,,,,TRUE,,Predecessor,DM.USUBJID,,
3,ADSL,ADSL Identifier Variables,Char,Req,SUBJID,Subject Identifier for the Study,,text,3,,SUBJID,,,,Yes,,,,,TRUE,,Predecessor,DM.SUBJID,,
4,ADSL,ADSL Identifier Variables,Char,Req,SITEID,Study Site Identifier,,text,2,,SITEID,Study Site Identifier,,,Yes,,,,,TRUE,,Predecessor,DM.SITEID,,
9,ADSL,ADSL Subject Demographics Variables,Num,Req,AGE,Age,,integer,2,,AGE,,,,Yes,,,,,TRUE,,Predecessor,DM.AGE,,
10,ADSL,ADSL Subject Demographics Variables,Char,Req,AGEU,Age Units,,text,5,,AGEU,Age Units,,,Yes,,,,,TRUE,TRUE,Predecessor,DM.AGEU,,YEARS
13,ADSL,ADSL Subject Demographics Variables,Char,Req,SEX,Sex,,text,1,,SEX,Sex,,,Yes,,,,,TRUE,TRUE,Predecessor,DM.SEX,,M@F
14,ADSL,ADSL Subject Demographics Variables,Char,Req,RACE,Race,,text,41,,RACE,Race,,,Yes,,,,,FALSE,TRUE,Predecessor,DM.RACE,,WHITE@BLACK OR AFRICAN AMERICAN@ASIAN@OTHER
18,ADSL,ADSL Population Indicator Variables,Char,Cond,SAFFL,Safety Population Flag,,text,1,,SAFFL,No Yes Response - N/Y,,,Yes,,"Set to ""Y"" if ACTARMCD ^= MISSING, ""N"" otherwise",MT.ADSL.SAFFL,,TRUE,TRUE,Derived,,,Y@N
20,ADSL,ADSL Population Indicator Variables (Sponsor-Defined),Char,,PKFL,Pharmacokinetic Analysis Population Flag,,text,1,,PKFL,No Yes Response - N/Y,,,No,,"Set to ""Y"" if ACTARMCD NOT IN (MISSING, ""Placebo""), ""N"" otherwise",MT.ADSL.PKFL,,TRUE,TRUE,Derived,,,N@Y
23,ADSL,ADSL Population Indicator Variables,Char,Cond,RANDFL,Randomized Population Flag,,text,1,,RANDFL,No Yes Response - N/Y,,,No,,"Set to ""Y"" if entry with DS.DSDECOD=""RANDOMIZED"" is available, ""N"" otherwise",MT.ADSL.RANDFL,,TRUE,TRUE,Derived,,,Y@N
26,ADSL,ADSL Treatment Variables,Char,Req,ARM,Description of Planned Arm,,text,19,,ARM,Description of Planned/Actual Arm,,,Yes,,,,,TRUE,TRUE,Predecessor,DM.ARM,,Placebo@IV 0.15 mg MEDI0618@IV 0.45 mg MEDI0618@IV 1.35 mg MEDI0618@IV 4 mg MEDI0618@IV 12 mg MEDI0618@IV 40 mg MEDI0618@IV 80 mg MEDI0618@IV 200 mg MEDI0618@SC 100 mg MEDI0618@IV 100 mg MEDI0618
27,ADSL,ADSL Treatment Variables,Char,Perm,ACTARM,Description of Actual Arm,,text,19,,ACTARM,Description of Planned/Actual Arm,,,No,,,,,TRUE,TRUE,Predecessor,DM.ACTARM,,Placebo@IV 0.15 mg MEDI0618@IV 0.45 mg MEDI0618@IV 1.35 mg MEDI0618@IV 4 mg MEDI0618@IV 12 mg MEDI0618@IV 40 mg MEDI0618@IV 80 mg MEDI0618@IV 200 mg MEDI0618@SC 100 mg MEDI0618@IV 100 mg MEDI0618@Not Treated
28,ADSL,ADSL Treatment Variables,Char,,ARMNRS,Reason Arm and/or Actual Arm is Null,,text,21,,ARMNRS,Reason Arm and/or Actual Arm is Null,,,No,,,,,TRUE,TRUE,Predecessor,DM.ARMNRS,,"SCREEN FAILURE@NOT ASSIGNED@BASELINE FAILURE@ASSIGNED, NOT TREATED"
29,ADSL,ADSL Treatment Variables,Char,Req,TRT01P,Planned Treatment for Period 01,,text,30,,TRT01P,Planned/Actual Treatment ,,,Yes,,"If DM.ARM eq  ""Placebo"" then TRT01P = ""Placebo""; else if find(DM.ARM, ""MEDI0618"") gt 0 then TRTP is equal to DM.ARM but with route of administration written-out and put last",MT.ADSL.TRT01P,,TRUE,TRUE,Derived,,,Placebo@0.15 mg MEDI0618 (intravenous)@0.45 mg MEDI0618 (intravenous)@1.35 mg MEDI0618 (intravenous)@4 mg MEDI0618 (intravenous)@12 mg MEDI0618 (intravenous)@40 mg MEDI0618 (intravenous)@80 mg MEDI0618 (intravenous)@200 mg MEDI0618 (intravenous)@100 mg MEDI0618 (subcutaneous)@100 mg MEDI0618 (intravenous)@IV 0.15 mg MEDI0618@IV 0.45 mg MEDI0618@IV 1.35 mg MEDI0618@IV 4 mg MEDI0618@IV 12 mg MEDI0618@IV 40 mg MEDI0618@IV 100 mg MEDI0618@IV 200 mg MEDI0618
30,ADSL,ADSL Treatment Variables,Char,Cond,TRT01A,Actual Treatment for Period 01,,text,30,,TRT01A,Planned/Actual Treatment ,,,No,,"If EX.EXTRT eq ""PLACEBO"" then TRT01A = ""Placebo"". Else if EX.EXTRT = ""MEDI0618"" then TRT01A is concatenated using EXDOSE,  EXDOSU, EXTRT and EXROUTE",MT.ADSL.TRT01A,,TRUE,TRUE,Derived,,,Placebo@0.15 mg MEDI0618 (intravenous)@0.45 mg MEDI0618 (intravenous)@1.35 mg MEDI0618 (intravenous)@4 mg MEDI0618 (intravenous)@12 mg MEDI0618 (intravenous)@40 mg MEDI0618 (intravenous)@80 mg MEDI0618 (intravenous)@200 mg MEDI0618 (intravenous)@100 mg MEDI0618 (subcutaneous)@IV 0.15 mg MEDI0618@IV 0.45 mg MEDI0618@IV 1.35 mg MEDI0618@IV 4 mg MEDI0618@IV 12 mg MEDI0618@IV 40 mg MEDI0618@IV 100 mg MEDI0618@IV 200 mg MEDI0618
46,ADSL,ADSL Treatment Timing Variables,Num,Cond,TRTSDT,Date of First Exposure to Treatment,,integer,5,,TRTSDT,,YYMMDD10.,,No,,Date part of DM.RFXSTDTC converted to numeric SAS date,MT.ADSL.TRTSDT,,TRUE,,Derived,,,
47,ADSL,ADSL Treatment Timing Variables,Num,Perm,TRTSTM,Time of First Exposure to Treatment,,integer,5,,TRTSTM,,TIME5.,,No,,Time part of DM.RFXSTDTC converted to numeric SAS time,MT.ADSL.TRTSTM,,TRUE,,Derived,,,
48,ADSL,ADSL Treatment Timing Variables,Num,Cond,TRTSDTM,Datetime of First Exposure to Treatment,,integer,10,,TRTSDTM,,E8601DT16.,,No,,DM.RFXSTDTC converted to numeric SAS datetime,MT.ADSL.TRTSDTM,,TRUE,,Derived,,,
51,ADSL,ADSL Treatment Timing Variables,Num,Cond,TRTEDT,Date of Last Exposure to Treatment,,integer,5,,TRTEDT,,YYMMDD10.,,No,,Date part of DM.RFXENDTC converted to numeric SAS date,MT.ADSL.TRTEDT,,TRUE,,Derived,,,
52,ADSL,ADSL Treatment Timing Variables,Num,Perm,TRTETM,Time of Last Exposure to Treatment,,integer,5,,TRTETM,,TIME5.,,No,,Time part of DM.RFXENDTC converted to numeric SAS time,MT.ADSL.TRTETM,,TRUE,,Derived,,,
53,ADSL,ADSL Treatment Timing Variables,Num,Cond,TRTEDTM,Datetime of Last Exposure to Treatment,,integer,10,,TRTEDTM,,E8601DT16.,,No,,DM.RFXENDTC converted to numeric SAS datetime,MT.ADSL.TRTEDTM,,TRUE,,Derived,,,
54,ADSL,ADSL Treatment Variables (Sponsor-Defined),Char,Perm,TR01PG1,Planned Pooled Treatment 1 for Period 01,,text,8,,TR01PG1,Planned/Actual Pooled Treatment,,,No,,"If TRT01P=""Placebo"" then TR01PG1 = ""Placebo"". Else if TRT01P is not missing then TR01PG1=""MEDI0618""",MT.ADSL.TR01PG1,,TRUE,TRUE,Derived,,,Placebo@MEDI0618
55,ADSL,ADSL Treatment Variables (Sponsor-Defined),Char,Perm,TR01AG1,Actual Pooled Treatment 1 for Period 01,,text,8,,TR01AG1,Planned/Actual Pooled Treatment,,,No,,"If TRT01A=""Placebo"" then TR01AG1 = ""Placebo"". Else if TRT01A is not missing then TR01AG1=""MEDI0618""",MT.ADSL.TR01AG1,,TRUE,TRUE,Derived,,,Placebo@MEDI0618
56,ADSL,ADSL Dose Variables,Num,,DOSE01P,Planned Treatment Dose for Period 01,,float,4,2,DOSE01P,,,,No,,"Dose part of TRT01P, 0 if TRT01P=""Placebo""",MT.ADSL.DOSE01P,,TRUE,,Derived,,,
57,ADSL,ADSL Dose Variables,Num,,DOSE01A,Actual Treatment Dose for Period 01,,float,4,2,DOSE01A,,,,No,,,,,TRUE,,Predecessor,EX.EXDOSE,,
58,ADSL,ADSL Dose Variables,Char,,DOSE01U,Units for Dose for Period 01,,text,2,,DOSE01U,Dose Units,,,No,,,,,TRUE,TRUE,Predecessor,EX.EXUNIT,,mg
59,ADSL,Sponsor-defined variable,Num,,LNDOSE,Natural Log of Actual Treatment Dose,,float,12,10,LNDOSE,,5.2,,No,,LNDOSE = ln(DOSEA),MT.ADSL.LNDOSE,,TRUE,,Derived,,,
60,ADSL,Sponsor-defined variable,Char,,ROUTE,Route of Administration,,text,12,,ROUTE,Route of Administration,,,No,,,,,TRUE,TRUE,Predecessor,EX.EXROUTE,,INTRAVENOUS@SUBCUTANEOUS
102,ADSL,ADSL Subject-Level Trial Experience Variables,Char,Perm,EOTSTT,End of Treatment Status,,text,12,,EOTSTT,End of Treatment Status,,,No,,"If DM.ACTARM ^=MISSING and EC.ECADJ=MISSING then EOTSTT = ""COMPLETED""; else if DM.ACTARM ^= MISSING and EC.ECADJ ^= MISSING then EOTSTT = ""DISCONTINUED""; else if ACTARM=MISSING then EOTSTT = ""NOT TREATED""",MT.ADSL.EOTSTT,,FALSE,TRUE,Derived,,,COMPLETED@NOT TREATED
62,ADSL,ADSL Subject-Level Trial Experience Variables,Char,Perm,EOSSTT,End of Study Status,,text,12,,EOSSTT,End of Study Status,,,No,,"Set to ""COMPLETED"" if entry with DS.DSCAT=""DISPOSITION EVENT"" and DS.DSDECOD=""COMPLETED"" exists, ""DISCONTINUED"" otherwise",MT.ADSL.EOSSTT,,TRUE,TRUE,Derived,,,COMPLETED@DISCONTINUED
100,ADSL,ADSL Subject-Level Trial Experience Variables,Char,Perm,DCSREAS,Reason for Discontinuation from Study,,text,38,,DCSREAS,Reason for Discontinuation from Study,,,No,,"If DM.ARMNRES=""NOT ASSIGNED"" then DCSREAS = DM.ARMNDESC. Else if DM.ARMNRES ^= MISSING then DCSREAS = DM.ARMNRS. Else if DS.DSCAT=""DISPOSITION EVENT"" and DS.DSDECOD ^= ""COMPLETED"" then DCSREAS = DS.DSDECOD.",MT.ADSL.DCSREAS,,TRUE,TRUE,Derived,,,"SCREEN FAILURE@COHORT COMPLETED@FAILURE TO MEET RANDOMIZATION CRITERIA@WITHDRAWAL BY SUBJECT@BASELINE FAILURE@SUBJECT WAS NOT NEEDED DESPITE ELIGIBILITY@ADVERSE EVENT@EXCL. CRIT. 21 MET: ALT > ULN@EXCL. CRIT. 23 MET: ECG QRS <115MSEC W@EXCL. CRIT. 22 MET: HR > 85 BPM@EXCL. CRIT. 15 AND 21 MET: GFR < 90ML/@EXCL. CRIT. 22 MET: HR > 85 BPM EXCL.@EXCL. CRIT. 23 MET: QRS <115MSEC WITH@EXCL. CRIT. 22 MET: SYSTOLIC BLOOD PRE@EXCL. CRIT. 15, 21 MET: GFR < 90ML/MIN@EXCL. CRIT. 18 MET: POSITIVE DRUG TEST@INCL. CRIT. 7 NOT MET, EXCL.CRIT 23 ME@EXCL CRIT. 23 MET: PQ > 200 MSEC@INCL. CRIT. 6 NOT MET: CK > 2,5 X ULN@EXCL. CRIT. 15; 21 MET: GFR < 90ML/MIN@INCL. CRIT. 6 NOT MET: ABNORMAL LAB VA@EXCL. CRIT. 23 MET: QRS > 120MSEC.@EXCL. CRIT. 22 MET: HR > 85BPM@EXCL. CRIT. 23 MET: PR > 200MSEC.@EXCL. CRIT. 22 MET: SYS. BP > 140MMHG@VEGETARISCH@BASELINE FAILURE , EXCLUSION 23 (PQ>20@EXCL. CRIT. 13 MET: BURN OUT IN MED. H@EXCL. CRIT .15; 21 MET: ALT > 1XULN, G@EXCL. CRIT. 20 MET: ABNORMAL LAB VALUE@INCL. CRIT. 6 & 8 NOT MET: STY RIGHT E@EXCL. CRIT. 23 MET: ABNORMAL ECG@EXCL. CRIT .15; 21 MET: GFR < 90ML/MIN@EXCL CRIT.23 MET : PR > 200MSEC@INCL CRIT.6 NOT MET: NEUROPHILES TOO L@EXCL. CRIT. 13 MET: HISTORY OF ADHD@EXCL CRIT 21 MET: AST/ALT ELEVATED, AN@EXCL. CRIT. 13 MET: DEORESSION IN MED.@INCL CRIT, 6 NOT MET: CK >2,5XULN  EXC@BASELINE FAILURE ON DAY -1. INCLUSION@INCL. CRIT. 6 NOT MET: CK > 2,5XULN@EXCL. CRIT. 23 MET: QRS > 115MSEC@EXCL. CRIT 21 MET: ALT > ULN@EXCL.CRIT 19 MET: USAGE OF MEDICATION@EXCL. CRIT. 13 MET: CURRENT PSYCHIATRI@INCL. CRIT. 6 NOT MET: TOTAL BILIRUBIN@INCL. CRIT. 4 NOT MET: NO EFFECTIVE CO@INCL. CRIT. 6 NOT MET: CK  2,5 ELEVATE@INCL. CRIT. 7 NOT MET: IRREGULAR R/S T@INCL. CRIT. 5 NOT MET: BMI > 30 KG/M2@INCL. CRIT. 7 NOT MET; EXCL. CRIT. 24@EXCL. CRIT. 22 MET: HEART RATE > 85 BP@EXCL. CRIT. 3 MET, EXCL. CRIT. 6 MET@EXCL. CRIT. 15 MET: RECENT TUBERCULOSI@SUBJECT WAS NOT NEEDED DESPITE ELIGIBI@INCLUSION 06 NOT MET (TOTAL BILIRUBIN@EXCL. CRIT. 22 MET: HEART RATE< 50 BPM@EXCL CRIT. 8 MET: POOR VENOUS ACCESS E@INCL. CRIT. 7 NOT MET AND EXCL. CRIT.@EXCL. CRIT .15; 20 MET: GFR < 90ML/MIN@EXCL. CRIT. 22; 20 MET: TACHYCARDIA@EXCL. CRIT. 13 MET: HISTORY OF PSYCHIA@INCL. CRIT. 7 NOT MET: PR > 200 MSEC@INCL. CRIT. 7 NOT MET: QRS > 115MSEC@INCL. CRIT. 6 NOT MET: SIGNS OF INFECT@INCL. CRIT. 5 NOT MET: BMI > 30,0@EXCL. CRIT. 18 MET: POSITIVE TEST FOR@EXCL. CRIT. 18 MET: CANNABINOIDS POSIT@EXCL. CRIT. 21 MET: ALT, AST > ULN@EXCL. CRIT. 18 MET: OPIOIDS POSITIVE@EXCL. CRIT. 23 MET: PR > 200 MSEC@INCL. CRIT. 7 NOT MET AND EXCL CRIT. 2@EXCL. CRIT. 18 MET: POSITIVE DRUG SCRE@INCL. CRIT. 5 NOT MET: BMI >30,0@EXCL. CRIT. 22 MET: BP > 140/90MMHG@EXCL. CRIT. 20 MET: UNCONTROLLED SKIN@WITHDRAWAL OF CONSENT: SUBJECT DID NOT@EXCL. CRIT. 20; 21 MET: CK > 2,5XULN;@INCL. CRIT. 2 AND 6 NOT MET: NOT HEALT@EXCL. CRIT. 22 MET: PULS < 50 BPM@KANN ERST AM 04.09. STARTEN --> LABOR-@INCL. CRIT. 5 NOT MET: BMI > 30KG/M2@EXCL. CRIT. 24 MET: PR > 200MSEC@EXCL. CRIT. 24 MET: QRS > 115MSEC@INCL. CRIT. 9 NOT MET: SUBJECT INCOMPL@INCL. CRIT. 3 NOT MET: FSH < 40MIU/ML@EXCL. CRIT. 13 MET: DEPRESSION, CURREN@EXCL. CRIT. 22 MET: ALT AND AST > ULN@WILL BE OUT OF SCREENING WINDOW@INCL. CRIT. 7 NOT MET: ECG WITH ABNORM@EXCL. CRIT. 15; 22 MET: GFR < 90ML/MIN@EXCL. CRIT. 19 MET: SUBJECT USE NON-PR@DISCONTINUATION BY SUBJECT DUE TO PRIV@INCL. CRIT. 7 NOT MET:  ABNORMAL ECG@EXCL. CRIT. 22 MET: ALT, ALT > ULN@EXCL. CRIT. 23 MET: HR > 85BPM@EXCL. CRIT. 23 MET: SYS. BP > 140MMHG,@EXCL. CRIT. 22 MET: ALT > ULN@EXCL. CRIT. 20 MET: COVID-19 VACCINATI@EXCL. CRIT. 23 MET: PULSE > 85 BPM@EXCL. CRIT. 15 AND 22 MET: GFR < 90 ML@EXCL. CRIT. 22 MET: ALT > 1X THE UPPER@EXCL. CRIT. 24 MET: PR > 200 MSEC@EXCL. CRIT. 18 MET: ALCOHOL BREATH TES"
113,ADSL,ADSL Subject-Level Trial Experience Variables,Num,Cond,RANDDT,Date of Randomization,,integer,5,,RANDDT,,YYMMDD10.,,No,,"DS.DSSTDTC where DS.DSDECOD=""RANDOMIZED"" converted to numeric SAS date",MT.ADSL.RANDDT,,TRUE,,Derived,,,
132,ADSL,ADSL Grouping Variables (Sponsor-Defined),Char,,COHORT,Cohort ,,text,23,,COHORT,Cohort,,,No,,,,,TRUE,TRUE,Predecessor,DM.COHORT,,COHORT 1 (INTRAVENOUS)@COHORT 2 (INTRAVENOUS)@COHORT 3 (INTRAVENOUS)@COHORT 4 (INTRAVENOUS)@COHORT 5 (INTRAVENOUS)@COHORT 6 (INTRAVENOUS)@COHORT 7 (INTRAVENOUS)@COHORT 8 (INTRAVENOUS)@COHORT 9 (SUBCUTANEOUS)
133,ADSL,ADSL Grouping Variables (Sponsor-Defined),Char,,COHORTG1,Pooled Cohort Group 1,,text,24,,COHORTG1,Pooled Cohort Group 1,,,No,,"If DM.COHORT IN (""COHORT 1  (INTRAVENOUS)"" ""COHORT 2  (INTRAVENOUS)"" ""COHORT 3  (INTRAVENOUS)"" ""COHORT 4  (INTRAVENOUS)"" ""COHORT 9 (SUBCUTANEOUS)"") then COHORTG1=COHORT. Else if COHORT ^= MISSING then COHORTG1=""COHORT 5-8 (INTRAVENOUS)""",MT.ADSL.COHORTG1,,TRUE,TRUE,Derived,,,COHORT 1 (INTRAVENOUS)@COHORT 2 (INTRAVENOUS)@COHORT 3 (INTRAVENOUS)@COHORT 4 (INTRAVENOUS)@COHORT 5-8 (INTRAVENOUS)@COHORT 9 (SUBCUTANEOUS)
134,ADSL,ADSL Grouping Variables (Sponsor-Defined),Char,,COHORTG2,Pooled Cohort Group 2,,text,24,,COHORTG2,Pooled Cohort Group 2,,,No,,"If COHORT=""COHORT 9 (SUBCUTANEOUS)"" then COHORTG2=""COHORT 9 (SUBCUTANEOUS)"". Else if COHORT is not missing then COHORTG2=""COHORT 1-8 (INTRAVENOUS)""",MT.ADSL.COHORTG2,,TRUE,TRUE,Derived,,,COHORT 1-8 (INTRAVENOUS)@COHORT 9 (SUBCUTANEOUS)
135,ADSL,ADSL Baseline Variable (Sponsor-Defined),Num,,HEIGHTBL,Baseline Height (cm),,integer,3,,HEIGHTBL,,,,No,,,,,TRUE,,Predecessor,"VS.VSSTRESN where VS.VSTESTCD=""HEIGHT"" and VS.VSBLFL=""Y""",,
136,ADSL,ADSL Baseline Variable (Sponsor-Defined),Num,,WEIGHTBL,Baseline Weight (kg),,float,5,1,WEIGHTBL,,5.1,,No,,,,,TRUE,,Predecessor,"VS.VSSTRESN where VS.VSTESTCD=""WEIGHT"" and VS.VSBLFL=""Y""",,
137,ADSL,Sponsor-defined variable,Num,,LNWGHTBL,Natural Log of Baseline Weight (kg),,float,12,10,LNWGHTBL,,4.2,,No,,LNWGHTBL = ln(WEIGHTBL),MT.ADSL.LNWGHTBL,,TRUE,,Derived,,,
138,ADSL,ADSL Baseline Variable (Sponsor-Defined),Num,,BMIBL,Baseline Body Mass Index (kg/m^2),,float,4,1,BMIBL,,4.1,,No,,,,,TRUE,,Predecessor,"VS.VSSTRESN where VS.VSTESTCD=""BMI"" and VS.VSBLFL=""Y""",,
140,ADSL,Sponsor-defined variable,Char,,ADAPOSFL,ADA Positive at any Visit,,text,1,,ADAPOSFL,No Yes Response - N/Y,,,No,,"If IS.ISSTRESC=""POSITIVE"" for any visit then ADAPOSFL = ""Y"". ""N"" otherwise.",MT.ADSL.ADAPOSFL,,TRUE,TRUE,Derived,,,N@Y
141,ADSL,Sponsor-defined variable,Char,,ATTSCRV,Attended Screening Visit (Day 1),,text,2,,ATTSCRV,No Yes Response - N/Y/NA,,,No,,"Set to ""Y"" if SV.VISITNUM=1 and SV.SVSTDTC^=MISSING, ""N"" otherwise.",MT.ADSL.ATTSCRV,,FALSE,TRUE,Derived,,,Y@N
142,ADSL,Sponsor-defined variable,Char,,ATTTRTV,Attended Treatment Visit (Day 1 to 3),,text,2,,ATTTRTV,No Yes Response - N/Y/NA,,,No,,"Set to ""Y"" if SV.VISITNUM=2 and SV.SVSTDTC^=MISSING, ""N"" otherwise.",MT.ADSL.ATTTTRTV,,FALSE,TRUE,Derived,,,Y@N
143,ADSL,Sponsor-defined variable,Char,,ATTFUD8,Attended Follow-Up Visit (Day 8),,text,2,,ATTFUD8,No Yes Response - N/Y/NA,,,No,,"Set to ""Y"" if SV.VISITNUM=3 and SV.SVSTDTC^=MISSING, ""N"" otherwise.",MT.ADSL.ATTFUD8,,FALSE,TRUE,Derived,,,Y@N
144,ADSL,Sponsor-defined variable,Char,,ATTFUD15,Attended Follow-Up Visit (Day 15),,text,2,,ATTFUD15,No Yes Response - N/Y/NA,,,No,,"If SV.VISITNUM=4 and SV.SVSTDTC^=MISSING then ATTFUD15 = ""Y"". Else if DM.COHORT=""COHORT1 (INTRAVENOUS)"" then ATTFUD15 = ""NA"". Else ATTFUD15 = ""N"".",MT.ADSL.ATTFUD15,,TRUE,TRUE,Derived,,,NA@Y
145,ADSL,Sponsor-defined variable,Char,,ATTFUD22,Attended Follow-Up Visit (Day 22),,text,2,,ATTFUD22,No Yes Response - N/Y/NA,,,No,,"If SV.VISITNUM=5 and SV.SVSTDTC^=MISSING then ATTFUD22 = ""Y"". Else if DM.COHORT IN (""COHORT1 (INTRAVENOUS)"" ""COHORT2 (INTRAVENOUS)"") then ATTFUD22 = ""NA"". Else ATTFUD22 = ""N"".",MT.ADSL.ATTFUD22,,TRUE,TRUE,Derived,,,NA@Y
146,ADSL,Sponsor-defined variable,Char,,ATTFUD29,Attended Follow-Up Visit (Day 29),,text,2,,ATTFUD29,No Yes Response - N/Y/NA,,,No,,"If SV.VISITNUM=6 and SV.SVSTDTC^=MISSING then ATTFUD29 = ""Y"". Else if DM.COHORT IN (""COHORT1 (INTRAVENOUS)"" ""COHORT2 (INTRAVENOUS)"") then ATTFUD29 = ""NA"". Else ATTFUD29 = ""N"".",MT.ADSL.ATTFUD29,,TRUE,TRUE,Derived,,,NA@Y
147,ADSL,Sponsor-defined variable,Char,,ATTFUD43,Attended Follow-Up Visit (Day 43),,text,2,,ATTFUD43,No Yes Response - N/Y/NA,,,No,,"If SV.VISITNUM=7 and SV.SVSTDTC^=MISSING then ATTFUD43 = ""Y"". Else if DM.COHORT IN (""COHORT1 (INTRAVENOUS)"" ""COHORT2 (INTRAVENOUS)"" ""COHORT3 (INTRAVENOUS)"") then ATTFUD43 = ""NA"". Else ATTFUD43 = ""N"".",MT.ADSL.ATTFUD43,,TRUE,TRUE,Derived,,,NA@Y
148,ADSL,Sponsor-defined variable,Char,,ATTFUD57,Attended Follow-Up Visit (Day 57),,text,2,,ATTFUD57,No Yes Response - N/Y/NA,,,No,,"If SV.VISITNUM=8 and SV.SVSTDTC^=MISSING then ATTFUD57 = ""Y"". Else if DM.COHORT IN (""COHORT1 (INTRAVENOUS)"" ""COHORT2 (INTRAVENOUS)"" ""COHORT3 (INTRAVENOUS)"") then ATTFUD57 = ""NA"". Else ATTFUD57 = ""N"".",MT.ADSL.ATTFUD57,,TRUE,TRUE,Derived,,,NA@Y
149,ADSL,Sponsor-defined variable,Char,,ATTFUD71,Attended Follow-Up Visit (Day 71),,text,2,,ATTFUD71,No Yes Response - N/Y/NA,,,No,,"If SV.VISITNUM=9 and SV.SVSTDTC^=MISSING  or VISITNUM=98 then ATTFUD71 = ""Y"". Else if DM.COHORT IN (""COHORT1 (INTRAVENOUS)"" ""COHORT2 (INTRAVENOUS)"" ""COHORT3 (INTRAVENOUS)""  ""COHORT4 (INTRAVENOUS)"") then ATTFUD71 = ""NA"". Else ATTFUD71 = ""N"".",MT.ADSL.ATTFUD71,,TRUE,TRUE,Derived,,,NA@Y
150,ADSL,Sponsor-defined variable,Char,,ATTFUD85,Attended Follow-Up Visit (Day 85),,text,2,,ATTFUD85,No Yes Response - N/Y/NA,,,No,,"If SV.VISITNUM=10 and SV.SVSTDTC^=MISSING then ATTFUD85 = ""Y"". Else if DM.COHORT IN (""COHORT1 (INTRAVENOUS)"" ""COHORT2 (INTRAVENOUS)"" ""COHORT3 (INTRAVENOUS)""  ""COHORT4 (INTRAVENOUS)"") then ATTFUD85 = ""NA"". Else ATTFUD85 = ""N"".",MT.ADSL.ATTFUD85,,TRUE,TRUE,Derived,,,NA@Y
19,ADSL_alternative,,Char,,SAFEXRES,Reason for Exclusion from Safety Pop,,text,1,,HEIGHTBL,,,,No,,"If EC.ECREASOC ^=MISSING then SAFEXRES = ""Not treated""",,,TRUE,TRUE,Derived,,,Y@N
21,ADSL_alternative,,Char,,PKEXRES,Reason for Exclusion from PK Analy Pop,,text,1,,WEIGHTBL,,,,No,,"If EC.ECREASOC ^=MISSING then SAFEXRES = ""Not treated""",,,TRUE,TRUE,Derived,,,Y@N
27,ADSL_alternative,ADSL Treatment Variables,Char,Req,TRT01P,Planned Treatment for Period 01,,text,30,,TRT01P,Planned/Actual Treatment ,,,No,,,,,TRUE,TRUE,Predecessor,DM.ARM,,Placebo@0.15 mg MEDI0618 (intravenous)@0.45 mg MEDI0618 (intravenous)@1.35 mg MEDI0618 (intravenous)@4 mg MEDI0618 (intravenous)@12 mg MEDI0618 (intravenous)@40 mg MEDI0618 (intravenous)@100 mg MEDI0618 (intravenous)@200 mg MEDI0618 (intravenous)@100 mg MEDI0618 (subcutaneous)@IV 0.15 mg MEDI0618@IV 0.45 mg MEDI0618@IV 1.35 mg MEDI0618@IV 4 mg MEDI0618@IV 12 mg MEDI0618@IV 40 mg MEDI0618@IV 100 mg MEDI0618@IV 200 mg MEDI0618
22,ADSL_not_used,ADSL Population Indicator Variables,Char,Cond,COMPLFL,Completers Population Flag,,text,1,,BMIBL,No Yes Response,,,No,,"Set to ""Y"" if DS.DSCAT=""DISPOSITION EVENT"" and DS.DSDECOD=""COMPLETED"", ""N"" otherwise",MT.ADSL.COMPLFL,,TRUE,TRUE,Derived,,,Y@N
24,ADSL_not_used,ADSL Population Indicator Variables,Char,Cond,ENRLFL,Enrolled Population Flag,,text,1,,ADAPOSFL,No Yes Response,,,No,,"Set to ""Y"" if DS.DSDECOD=""INFORMED CONSENT OBTAINED"", ""N"" otherwise",MT.ADSL.ENRLFL,,TRUE,TRUE,Derived,,,Y@N
1,ADVS,Identifier Variables for BDS Datasets,Char,Req,STUDYID,Study Identifier,,text,11,,STUDYID,Study Identifier,,,Yes,,,,,,,Predecessor,ADSL.STUDYID,,
2,ADVS,Identifier Variables for BDS Datasets,Char,Req,USUBJID,Unique Subject Identifier,,text,18,,USUBJID,,,,Yes,,,,,,,Predecessor,ADSL.USUBJID,,
3,ADVS,ADSL Identifier Variables,Char,Req,SUBJID,Subject Identifier for the Study,,text,3,,SUBJID,,,,No,,,,,,,Predecessor,ADSL.SUBJID,,
4,ADVS,Identifier Variables for BDS Datasets,Char,Perm,SITEID,Study Site Identifier,,text,2,,SITEID,Study Site Identifier,,,No,,,,,,,Predecessor,ADSL.SITEID,,
5,ADVS,ADSL Subject Demographics Variables,Num,Req,AGE,Age,,integer,2,,AGE,,,,No,,,,,,,Predecessor,ADSL.AGE,,
6,ADVS,ADSL Subject Demographics Variables,Char,Req,AGEU,Age Units,,text,5,,AGEU,Age Units,,,No,,,,,,,Predecessor,ADSL.AGEU,,YEARS
7,ADVS,ADSL Subject Demographics Variables,Char,Req,SEX,Sex,,text,1,,SEX,Sex,,,No,,,,,,,Predecessor,ADSL.SEX,,M@F
8,ADVS,ADSL Subject Demographics Variables,Char,Req,RACE,Race,,text,41,,RACE,Race,,,No,,,,,,,Predecessor,ADSL.RACE,,WHITE@OTHER@BLACK OR AFRICAN AMERICAN@ASIAN
9,ADVS,ADSL Population Indicator Variables,Char,Cond,SAFFL,Safety Population Flag,,text,1,,SAFFL,No Yes Response - N/Y,,,Yes,,,,,,,Predecessor,ADSL.SAFFL,,Y@N
10,ADVS,ADSL Population Indicator Variables (Sponsor-Defined),Char,,PKFL,Pharmacokinetic Analysis Population Flag,,text,1,,PKFL,No Yes Response - N/Y,,,No,,,,,,,Predecessor,ADSL.PKFL,,Y
11,ADVS,Treatment Timing Variables for BDS (Taken from ADSL),Num,,TRTSDT,Date of First Exposure to Treatment,,integer,5,,TRTSDT,,YYMMDD10.,,No,,,,,,,Predecessor,ADSL.TRTSDT,,
12,ADVS,Treatment Timing Variables for BDS (Taken from ADSL),Num,,TRTSTM,Time of First Exposure to Treatment,,integer,5,,TRTSTM,,TIME5.,,No,,,,,,,Predecessor,ADSL.TRTSTM,,
13,ADVS,Treatment Timing Variables for BDS (Taken from ADSL),Num,,TRTSDTM,Datetime of First Exposure to Treatment,,integer,10,,TRTSDTM,,E8601DT16.,,No,,,,,,,Predecessor,ADSL.TRTSDTM,,
14,ADVS,Treatment Timing Variables for BDS (Taken from ADSL),Num,,TRTEDT,Date of Last Exposure to Treatment,,integer,5,,TRTEDT,,YYMMDD10.,,No,,,,,,,Predecessor,ADSL.TRTEDT,,
15,ADVS,Treatment Timing Variables for BDS (Taken from ADSL),Num,,TRTETM,Time of Last Exposure to Treatment,,integer,5,,TRTETM,,TIME5.,,No,,,,,,,Predecessor,ADSL.TRTETM,,
16,ADVS,Treatment Timing Variables for BDS (Taken from ADSL),Num,,TRTEDTM,Datetime of Last Exposure to Treatment,,integer,10,,TRTEDTM,,E8601DT16.,,No,,,,,,,Predecessor,ADSL.TRTEDTM,,
17,ADVS,Record-Level Treatment Variables for BDS Datasets ,Char,Cond,TRTP,Planned Treatment,,text,30,,TRTP,Planned/Actual Treatment ,,,No,,,,,,,Predecessor,ADSL.TRT01P,,Placebo@0.15 mg MEDI0618 (intravenous)@0.45 mg MEDI0618 (intravenous)@1.35 mg MEDI0618 (intravenous)@4 mg MEDI0618 (intravenous)@12 mg MEDI0618 (intravenous)@40 mg MEDI0618 (intravenous)@100 mg MEDI0618 (intravenous)@200 mg MEDI0618 (intravenous)@100 mg MEDI0618 (subcutaneous)@IV 0.15 mg MEDI0618@IV 0.45 mg MEDI0618@IV 1.35 mg MEDI0618@IV 4 mg MEDI0618@IV 12 mg MEDI0618@IV 40 mg MEDI0618@IV 100 mg MEDI0618@IV 200 mg MEDI0618
18,ADVS,Record-Level Treatment Variables for BDS Datasets (Sponsor-Defined),Char,,TRTPG1,Planned Pooled Treatment 1,,text,8,,TRTPG1,Planned/Actual Pooled Treatment,,,No,,,,,,,Predecessor,ADSL.TRT01PG1,,MEDI0618@Placebo
19,ADVS,Record-Level Treatment Variables for BDS Datasets ,Char,,TRTA,Actual Treatment,,text,30,,TRTA,Planned/Actual Treatment ,,,No,,,,,,,Predecessor,ADSL.TRT01A,,Placebo@0.15 mg MEDI0618 (intravenous)@0.45 mg MEDI0618 (intravenous)@1.35 mg MEDI0618 (intravenous)@4 mg MEDI0618 (intravenous)@12 mg MEDI0618 (intravenous)@40 mg MEDI0618 (intravenous)@80 mg MEDI0618 (intravenous)@200 mg MEDI0618 (intravenous)@100 mg MEDI0618 (subcutaneous)@IV 0.15 mg MEDI0618@IV 0.45 mg MEDI0618@IV 1.35 mg MEDI0618@IV 4 mg MEDI0618@IV 12 mg MEDI0618@IV 40 mg MEDI0618@IV 100 mg MEDI0618@IV 200 mg MEDI0618
20,ADVS,Record-Level Treatment Variables for BDS Datasets (Sponsor-Defined),Char,,TRTAG1,Actual Pooled Treatment 1,,text,8,,TRTAG1,Planned/Actual Pooled Treatment,,,No,,,,,,,Predecessor,ADSL.TRT01AG1,,MEDI0618@Placebo
21,ADVS,Grouping Variables for BDS (Sponsor-Defined),Char,,COHORT,Cohort ,,text,23,,COHORT,Cohort,,,No,,,,,,,Predecessor,ADSL.COHORT,,COHORT 1 (INTRAVENOUS)@COHORT 2 (INTRAVENOUS)@COHORT 3 (INTRAVENOUS)@COHORT 4 (INTRAVENOUS)@COHORT 5 (INTRAVENOUS)@COHORT 6 (INTRAVENOUS)@COHORT 7 (INTRAVENOUS)@COHORT 8 (INTRAVENOUS)@COHORT 9 (SUBCUTANEOUS)
22,ADVS,Grouping Variables for BDS (Sponsor-Defined),Char,,COHORTG1,Pooled Cohort Group 1,,text,24,,COHORTG1,Pooled Cohort Group 1,,,No,,,,,,,Predecessor,ADSL.COHORTG1,,COHORT 1 (INTRAVENOUS)@COHORT 2 (INTRAVENOUS)@COHORT 3 (INTRAVENOUS)@COHORT 4 (INTRAVENOUS)@COHORT 5-8 (INTRAVENOUS)@COHORT 9 (SUBCUTANEOUS)
23,ADVS,Grouping Variables for BDS (Sponsor-Defined),Char,,COHORTG2,Pooled Cohort Group 2,,text,24,,COHORTG2,Pooled Cohort Group 2,,,No,,,,,,,Predecessor,ADSL.COHORTG2,,COHORT 1-8 (INTRAVENOUS)
24,ADVS,Sponsor-defined,Char,,ADAPOSFL,ADA Positive at any Visit,,text,1,,ADAPOSFL,No Yes Response - N/Y,,,No,,,,,,,Predecessor,ADSL.ADAPOSFL,,N@Y
25,ADVS,Timing Variables for BDS Datasets,Num,Perm,ADT,Analysis Date,,integer,5,,ADT,,YYMMDD10.,,No,,Date part of VS.VSDTC converted to numeric SAS date,MT.ADVS.ADT,,,,Derived,,,
26,ADVS,Timing Variables for BDS Datasets,Num,Perm,ATM,Analysis Time,,integer,5,,ATM,,TIME5.,,No,,Time part of VS.VSDTC converted to numeric SAS time,MT.ADVS.ATM,,,,Derived,,,
27,ADVS,Timing Variables for BDS Datasets,Num,Perm,ADTM,Analysis Datetime,,integer,10,,ADTM,,E8601DT16.,,No,,VS.VSDTC converted to numeric SAS date,MT.ADVS.ADTM,,,,Derived,,,
28,ADVS,Timing Variables for BDS Datasets,Num,Perm,ADY,Analysis Relative Day ,,integer,3,,ADY,,,,No,,If ADT >= TRTSDT then ADY = ADT - TRTSDT + 1. Else if ADT<TRTSDT then ADY = ADT - TRTSDT,MT.ADVS.ADY,,,,Derived,,,
43,ADVS,Timing Variables for BDS Datasets,Char,Cond,AVISIT,Analysis Visit ,,text,21,,AVISIT,Analysis Visits - ADVS,,,No,,"If ADTM <= TRTSDTM then AVISIT = ""Baseline"". Else if VS.VISIT=""TREATMENT"" then AVISIT = ""Treatment"". Else AVISIT = ""DAY XX"" with XX being the prescribed study day of VS.VISIT",MT.ADVS.AVISIT,,,,Derived,,,Day 8@Treatment@Baseline@Day 15@Day 29@Day 22@Day 57@Day 43@Day 85@Day 71@Early termination@Post-Baseline Maximum@Unscheduled 2.01
44,ADVS,Timing Variables for BDS Datasets,Num,Perm,AVISITN,Analysis Visit (N),,integer,3,,AVISITN,Analysis Visits (N) - ADVS,,,No,Numeric code for AVISITN,,,,,,Assigned,,,
45,ADVS,Timing Variables for BDS Datasets,Char,Cond,ATPT,Analysis Timepoint,,text,8,,ATPT,Analysis Timepoints - ADVS,,,No,,"If VISITNUM=1 then ATPT = ""Pre-dose"". Else if VS.VSTPT=""60 MIN"" then ATPT = ""1 hour"". Else if VS.VSTPT ^= MISSING then ATPT = lowcase(VS.VSTPT). ",MT.ADVS.ATPT,,,,Derived,,,48 hours@24 hours@12 hours@1 hour@45 min@30 min@15 min@Pre-dose@2 hours@4 hours@8 hours
46,ADVS,Timing Variables for BDS Datasets,Num,Perm,ATPTN,Analysis Timepoint (N),,integer,5,,ATPTN,Analysis Timepoints (N) - ADPC,,,No,Numeric code for ATPT,Numeric code for ATPT,,,,,Assigned,,,
47,ADVS,Timing Variables for BDS Datasets,Char,Perm,ATPTREF,Analysis Timepoint Reference,,text,17,,ATPTREF,Analysis Timepoint Reference,,,No,,"If VS.VSTPTREF=""START OF EXPOSURE TO STUDY DRUG"" or VISITNUM=1  then ATPTREF = ""Start of exposure"". Else if VS.VSTPTREF=""END OF EXPOSURE TO STUDY DRUG"" then ATPTREF = ""End of exposure""",MT.ADVS.ATPTREF,,,,Derived,,,End of exposure@Start of exposure
48,ADVS,Timing Variables for BDS Datasets (Sponsor-Defined),Num,,ARFTDTM,Anchor Timepoint for Analysis Rel. Time,,integer,10,,ARFTDTM,,E8601DT16.,,No,,"If VS.VSTPTREF=""START OF TREATMENT"" or VISITNUM=1 then ARFTDTM = TRTSDTM. Else if VS.VSTPTREF=""END OF TREATMENT"" then ARFTDTM = TRTEDTM",MT.ADVS.ARFTDTM,,,,Derived,,,
49,ADVS,Timing Variables for BDS Datasets,Num,Perm,ARELTM,Analysis Relative Time,,integer,5,,ARELTM,,TIME5.,,No,,ARELTM = ADTM - ARFTDTM,MT.ADVS.ARELTM,,,,Derived,,,
50,ADVS,Timing Variables for BDS Datasets,Char,Perm,ARELTMU,Analysis Relative Time Unit,,text,5,,ARELTMU,Analysis Relative Time Unit,,,No,HH:MM,,,,,,Assigned,,,HH:MM
104,ADVS,Analysis Parameter Variables for BDS Datasets,Char,Req,PARAM,Parameter ,,text,31,,PARAM,Parameter - ADVS,,,Yes,Concatenation of VS.VSTEST and VS.VSSTRESU,,,,,,Assigned,,,Diastolic Blood Pressure (mmHg)@Pulse Rate (beats/min)@Respiratory Rate (breaths/min)@Systolic Blood Pressure (mmHg)@Temperature (C)
105,ADVS,Analysis Parameter Variables for BDS Datasets,Char,Req,PARAMCD,Parameter Code,,text,5,,PARAMCD,Parameter Code - ADVS,,,Yes,,,,,,,Predecessor,VS.VSTESTCD,,DIABP@PULSE@RESP@SYSBP@TEMP
110,ADVS,Analysis Parameter Variables for BDS Datasets,Num,Cond,AVAL,Analysis Value,,float,4,1,AVAL,,,,No,,,,,,,Predecessor,VS.VSSTRESN,,
114,ADVS,Analysis Parameter Variables for BDS Datasets,Num,Cond,BASE,Baseline Value,,float,4,1,BASE,,,,No,,"If AVISIT ne ""BASELINE"" or ABLFL=""Y"" then BASE = AVAL of the record with ABLFL=""Y"" within the subject and parameter",MT.ADVS.BASE,,,,Derived,,,
119,ADVS,Analysis Parameter Variables for BDS Datasets,Num,Perm,CHG,Change from Baseline,,float,4,1,CHG,,,,No,,AVAL - BASE,MT.ADVS.CHG,,,,Derived,,,
152,ADVS,Toxicity and Range Variables for BDS Datasets,Char,Perm,ANRIND,Analysis Reference Range Indicator,,text,6,,ANRIND,Reference Range Indicator,,,No,,"If ANRLO <= AVAL <=ANRHI then ANRIND = ""Normal"". Else if AVAL < ANRLO then ANRIND = ""Low"". Else if AVAL > ANRHI then ANRIND = ""High""",MT.ADVS.ANRIND,,,,Derived,,,Normal@Low@High
154,ADVS,Toxicity and Range Variables for BDS Datasets,Num,Perm,ANRLO,Analysis Normal Range Lower Limit,,integer,2,,ANRLO,,,,No,,,,,,,Assigned,,,
156,ADVS,Toxicity and Range Variables for BDS Datasets,Num,Perm,ANRHI,Analysis Normal Range Upper Limit,,float,4,1,ANRHI,,,,No,,,,,,,Assigned,,,
157,ADVS,Toxicity and Range Variables for BDS Datasets,Char,Perm,BNRIND,Baseline Reference Range Indicator,,text,6,,BNRIND,Reference Range Indicator,,,No,,Set to ANRIND of the baseline record identified by ABLFL,MT.ADVS.BNRIND,,,,Derived,,,
164,ADVS,Flag Variables for BDS Datasets,Char,Cond,ABLFL,Baseline Record Flag,,text,1,,ABLFL,No Yes Response - Y,,,No,,"Set to ""Y"" for the record with AVISIT=""Baseline"" and ARELTM closest to 0 within the subject and parameter",MT.ADVS.ABLFL,,,,Derived,,,Y
165,ADVS,Analysis Parameter Criteria Variables for BDS Datasets,Char,Perm,MCRIT1,Analysis Multi-Response Criterion 1,,text,81,,MCRIT1,Analysis Multi-Response Criterion 1 - ADVS,,,No,,,MT.ADVS.MCRIT1ML,,,,Derived,,,Treatment-emergent change (lower limit: -10 mmHg; upper limit: 10 mmHg)@Treatment-emergent change (lower limit: -20 beats/min; upper limit: 15 beats/min)@Treatment-emergent change (lower limit: -20 mmHg; upper limit: 20 mmHg)
166,ADVS,Analysis Parameter Criteria Variables for BDS Datasets,Char,Cond,MCRIT1ML,Multi-Response Criterion 1 Evaluation,,text,13,,MCRIT1ML,Multi-Response Criterion 1 Evaluation - ADVS,,,No,,,MT.ADVS.MCRIT1ML,,,,Derived,,,NORMAL@HIGH INCREASE@HIGH DECREASE
167,ADVS,Analysis Criterion y,Char,Perm,CRIT1,Analysis Criterion 1,,text,60,,CRIT1,Analysis Criterion 1 - ADVS,,,No,,,MT.ADVS.CRIT1,,,,Derived,,,PCI value (outside normal range or high decrease / increase)@PCI value (outside normal range)
168,ADVS,Criterion y Evaluation Result Flag,Char,Cond,CRIT1FL,Criterion 1 Evaluation Result Flag,,text,1,,CRIT1FL,No Yes Response - Y,,,No,,,MT.ADVS.CRIT1FL,,,,Derived,,,N@Y
172,ADVS,Analysis Descriptor Variables for BDS Datasets,Char,Cond,DTYPE,Derivation Type,,text,7,,DTYPE,Derivation Type - ADVS,,,No,"Set to ""MAXIMUM"" for AVISIT = ""Maximum post-baseline value""",,MT.ADVS.DTYPE,,,,Assigned,,,MAXIMUM
173,ADVS,Flag Variables for BDS Datasets,Char,Cond,ANL01FL,Analysis Flag 01,,text,1,,ANL01FL,No Yes Response - Y,,,No,,"If AVISIT NE ""BASELINE"" then ANL01FL=""Y"". Else if AVISIT=""BASELINE"" then ANL01FL is set to ""Y"" for the record with ARELTM1 closest to 0 within the subject and parameter",MT.ADVS.ANL01FL,,,,Derived,,,Y
174,ADVS,SDTM Variable for Traceability,Num,,VSSEQ,Source Sequence Number,,integer,3,,VSSEQ,,,,No,,,,,,,Predecessor,VS.VSSEQ,,
177,ADVS,SDTM Variable for Traceability,Char,,VISIT,Visit Name,,text,18,,VISIT,,,,No,,,,,,,Predecessor,VS.VISIT,,FINAL VISIT DAY 8@TREATMENT@SCREENING@FINAL VISIT DAY 15@FOLLOW-UP DAY 8@FINAL VISIT DAY 29@FOLLOW-UP DAY 22@FOLLOW-UP DAY 15@FINAL VISIT DAY 57@FOLLOW-UP DAY 43@FOLLOW-UP DAY 29@FINAL VISIT DAY 85@FOLLOW-UP DAY 71@FOLLOW-UP DAY 57@UNSCHEDULED 1.01@UNSCHEDULED 1.02@UNSCHEDULED 2.01@EARLY TERMINATION
178,ADVS,SDTM Variable for Traceability,Num,,VISITNUM,Visit Number,,float,4,2,VISITNUM,,,,No,,,,,,,Predecessor,VS.VISITNUM,,
179,ADVS,SDTM Variable for Traceability,Char,,VSTPT,Planned Time Point Name,,text,8,,VSTPT,Planned Time Point Name - VS,,,No,,,,,,,Predecessor,VS.VSTPT,,48 HOURS@24 HOURS@12 HOURS@1 HOUR@60 MIN@45 MIN@30 MIN@15 MIN@PRE-DOSE@DAY -1@2 HOURS@4 HOURS@8 HOURS
180,ADVS,SDTM Variable for Traceability,Char,,VSTPTREF,Time Point Reference,,text,31,,VSTPTREF,Time Point Reference,,,No,,,,,,,Predecessor,VS.VSTPTREF,,END OF EXPOSURE TO STUDY DRUG@START OF EXPOSURE TO STUDY DRUG@START OF TREATMENT@END OF TREATMENT
165,ADVS_not_used,Analysis Parameter Variables for BDS Datasets,Char,Perm,CHGCAT1,Change from Baseline Category y,,text,7,,CHGCAT1,,,,,,,,,TRUE,,Derived,,,MAXIMUM
166,ADVS_not_used,Analysis Criterion y,Char,Perm,CRIT1,Analysis Criterion 1,,text,1,,CRIT1,,,,,,,,,TRUE,,Assigned,,,Y
167,ADVS_not_used,Criterion y Evaluation Result Flag,Char,Cond,CRIT1FL,Criterion 1 Evaluation Result Flag,,text,3,,CRTI1FL,,,,,,,,,TRUE,,Derived,,,
168,ADVS_not_used,Analysis Criterion y,Char,Perm,CRIT2,Analysis Criterion 2,,text,18,,CRIT2,,,,,,,,,TRUE,,Assigned,,,FINAL VISIT DAY 8@TREATMENT@SCREENING@FINAL VISIT DAY 15@FOLLOW-UP DAY 8@FINAL VISIT DAY 29@FOLLOW-UP DAY 22@FOLLOW-UP DAY 15@FINAL VISIT DAY 57@FOLLOW-UP DAY 43@FOLLOW-UP DAY 29@FINAL VISIT DAY 85@FOLLOW-UP DAY 71@FOLLOW-UP DAY 57@UNSCHEDULED 1.01@UNSCHEDULED 1.02@UNSCHEDULED 2.01@EARLY TERMINATION
169,ADVS_not_used,Criterion y Evaluation Result Flag,Char,Cond,CRIT2FL,Criterion 2 Evaluation Result Flag,,text,4,2,CRTI2FL,,,,,,,,,TRUE,,Derived,,,
170,ADVS_not_used,Analysis Criterion y,Char,Perm,CRIT3,Analysis Criterion 3,,text,8,,CRIT3,,,,,,,,,TRUE,,Assigned,,,48 HOURS@24 HOURS@12 HOURS@1 HOUR@60 MIN@45 MIN@30 MIN@15 MIN@PRE-DOSE@DAY -1@2 HOURS@4 HOURS@8 HOURS
171,ADVS_not_used,Criterion y Evaluation Result Flag,Char,Cond,CRIT3FL,Criterion 3 Evaluation Result Flag,,text,31,,CRIT3FL,,,,,,,,,TRUE,,Derived,,,END OF EXPOSURE TO STUDY DRUG@START OF EXPOSURE TO STUDY DRUG@START OF TREATMENT@END OF TREATMENT
1,ADWGHBMI,Identifier Variables for BDS Datasets,Char,Req,STUDYID,Study Identifier,,text,11,,STUDYID,Study Identifier,,,Yes,,,,,,,Predecessor,ADSL.STUDYID,,
2,ADWGHBMI,Identifier Variables for BDS Datasets,Char,Req,USUBJID,Unique Subject Identifier,,text,18,,USUBJID,,,,Yes,,,,,,,Predecessor,ADSL.USUBJID,,
3,ADWGHBMI,ADSL Identifier Variables,Char,Req,SUBJID,Subject Identifier for the Study,,text,3,,SUBJID,,,,No,,,,,,,Predecessor,ADSL.SUBJID,,
4,ADWGHBMI,Identifier Variables for BDS Datasets,Char,Perm,SITEID,Study Site Identifier,,text,2,,SITEID,Study Site Identifier,,,No,,,,,,,Predecessor,ADSL.SITEID,,
5,ADWGHBMI,ADSL Subject Demographics Variables,Num,Req,AGE,Age,,integer,2,,AGE,,,,No,,,,,,,Predecessor,ADSL.AGE,,
6,ADWGHBMI,ADSL Subject Demographics Variables,Char,Req,AGEU,Age Units,,text,5,,AGEU,Age Units,,,No,,,,,,,Predecessor,ADSL.AGEU,,YEARS
7,ADWGHBMI,ADSL Subject Demographics Variables,Char,Req,SEX,Sex,,text,1,,SEX,Sex,,,No,,,,,,,Predecessor,ADSL.SEX,,M@F
8,ADWGHBMI,ADSL Subject Demographics Variables,Char,Req,RACE,Race,,text,41,,RACE,Race,,,No,,,,,,,Predecessor,ADSL.RACE,,WHITE@OTHER@BLACK OR AFRICAN AMERICAN@ASIAN
9,ADWGHBMI,ADSL Population Indicator Variables,Char,Cond,SAFFL,Safety Population Flag,,text,1,,SAFFL,No Yes Response - N/Y,,,Yes,,,,,,,Predecessor,ADSL.SAFFL,,Y@N
10,ADWGHBMI,ADSL Population Indicator Variables (Sponsor-Defined),Char,,PKFL,Pharmacokinetic Analysis Population Flag,,text,1,,PKFL,No Yes Response - N/Y,,,No,,,,,,,Predecessor,ADSL.PKFL,,Y
11,ADWGHBMI,Treatment Timing Variables for BDS (Taken from ADSL),Num,,TRTSDT,Date of First Exposure to Treatment,,integer,5,,TRTSDT,,YYMMDD10.,,No,,,,,,,Predecessor,ADSL.TRTSDT,,
12,ADWGHBMI,Treatment Timing Variables for BDS (Taken from ADSL),Num,,TRTSTM,Time of First Exposure to Treatment,,integer,5,,TRTSTM,,TIME5.,,No,,,,,,,Predecessor,ADSL.TRTSTM,,
13,ADWGHBMI,Treatment Timing Variables for BDS (Taken from ADSL),Num,,TRTSDTM,Datetime of First Exposure to Treatment,,integer,10,,TRTSDTM,,E8601DT16.,,No,,,,,,,Predecessor,ADSL.TRTSDTM,,
14,ADWGHBMI,Treatment Timing Variables for BDS (Taken from ADSL),Num,,TRTEDT,Date of Last Exposure to Treatment,,integer,5,,TRTEDT,,YYMMDD10.,,No,,,,,,,Predecessor,ADSL.TRTEDT,,
15,ADWGHBMI,Treatment Timing Variables for BDS (Taken from ADSL),Num,,TRTETM,Time of Last Exposure to Treatment,,integer,5,,TRTETM,,TIME5.,,No,,,,,,,Predecessor,ADSL.TRTETM,,
16,ADWGHBMI,Treatment Timing Variables for BDS (Taken from ADSL),Num,,TRTEDTM,Datetime of Last Exposure to Treatment,,integer,10,,TRTEDTM,,E8601DT16.,,No,,,,,,,Predecessor,ADSL.TRTEDTM,,
17,ADWGHBMI,Record-Level Treatment Variables for BDS Datasets ,Char,Cond,TRTP,Planned Treatment,,text,30,,TRTP,Planned/Actual Treatment ,,,No,,,,,,,Predecessor,ADSL.TRT01P,,Placebo@0.15 mg MEDI0618 (intravenous)@0.45 mg MEDI0618 (intravenous)@1.35 mg MEDI0618 (intravenous)@4 mg MEDI0618 (intravenous)@12 mg MEDI0618 (intravenous)@40 mg MEDI0618 (intravenous)@100 mg MEDI0618 (intravenous)@200 mg MEDI0618 (intravenous)@100 mg MEDI0618 (subcutaneous)@IV 0.15 mg MEDI0618@IV 0.45 mg MEDI0618@IV 1.35 mg MEDI0618@IV 4 mg MEDI0618@IV 12 mg MEDI0618@IV 40 mg MEDI0618@IV 100 mg MEDI0618@IV 200 mg MEDI0618
18,ADWGHBMI,Record-Level Treatment Variables for BDS Datasets (Sponsor-Defined),Char,,TRTPG1,Planned Pooled Treatment 1,,text,8,,TRTPG1,Planned/Actual Pooled Treatment,,,No,,,,,,,Predecessor,ADSL.TRT01PG1,,MEDI0618@Placebo
19,ADWGHBMI,Record-Level Treatment Variables for BDS Datasets ,Char,,TRTA,Actual Treatment,,text,30,,TRTA,Planned/Actual Treatment ,,,No,,,,,,,Predecessor,ADSL.TRT01A,,Placebo@0.15 mg MEDI0618 (intravenous)@0.45 mg MEDI0618 (intravenous)@1.35 mg MEDI0618 (intravenous)@4 mg MEDI0618 (intravenous)@12 mg MEDI0618 (intravenous)@40 mg MEDI0618 (intravenous)@80 mg MEDI0618 (intravenous)@200 mg MEDI0618 (intravenous)@100 mg MEDI0618 (subcutaneous)@IV 0.15 mg MEDI0618@IV 0.45 mg MEDI0618@IV 1.35 mg MEDI0618@IV 4 mg MEDI0618@IV 12 mg MEDI0618@IV 40 mg MEDI0618@IV 100 mg MEDI0618@IV 200 mg MEDI0618
20,ADWGHBMI,Record-Level Treatment Variables for BDS Datasets (Sponsor-Defined),Char,,TRTAG1,Actual Pooled Treatment 1,,text,8,,TRTAG1,Planned/Actual Pooled Treatment,,,No,,,,,,,Predecessor,ADSL.TRT01AG1,,MEDI0618@Placebo
21,ADWGHBMI,Grouping Variables for BDS (Sponsor-Defined),Char,,COHORT,Cohort ,,text,23,,COHORT,Cohort,,,No,,,,,,,Predecessor,ADSL.COHORT,,COHORT 1 (INTRAVENOUS)@COHORT 2 (INTRAVENOUS)@COHORT 3 (INTRAVENOUS)@COHORT 4 (INTRAVENOUS)@COHORT 5 (INTRAVENOUS)@COHORT 6 (INTRAVENOUS)@COHORT 7 (INTRAVENOUS)@COHORT 8 (INTRAVENOUS)@COHORT 9 (SUBCUTANEOUS)
22,ADWGHBMI,Grouping Variables for BDS (Sponsor-Defined),Char,,COHORTG1,Pooled Cohort Group 1,,text,24,,COHORTG1,Pooled Cohort Group 1,,,No,,,,,,,Predecessor,ADSL.COHORTG1,,COHORT 1 (INTRAVENOUS)@COHORT 2 (INTRAVENOUS)@COHORT 3 (INTRAVENOUS)@COHORT 4 (INTRAVENOUS)@COHORT 5-8 (INTRAVENOUS)@COHORT 9 (SUBCUTANEOUS)
23,ADWGHBMI,Grouping Variables for BDS (Sponsor-Defined),Char,,COHORTG2,Pooled Cohort Group 2,,text,24,,COHORTG2,Pooled Cohort Group 2,,,No,,,,,,,Predecessor,ADSL.COHORTG2,,COHORT 1-8 (INTRAVENOUS)
24,ADWGHBMI,Sponsor-defined,Char,,ADAPOSFL,ADA Positive at any Visit,,text,1,,ADAPOSFL,No Yes Response - N/Y,,,No,,,,,,,Predecessor,ADSL.ADAPOSFL,,N@Y
25,ADWGHBMI,Sponsor-defined,Num,,HEIGHTBL,Baseline Height (cm),,integer,3,,HEIGHTBL,,,,No,,,,,TRUE,,Predecessor,ADSL.HEIGHTBL,,
26,ADWGHBMI,Identifier Variables for BDS Datasets,Num,Perm,ASEQ,Analysis Sequence Number,,integer,3,,ASEQ,,,,No,,,,,,,Assigned,,,
28,ADWGHBMI,Timing Variables for BDS Datasets,Num,Perm,ADT,Analysis Date,,integer,5,,ADT,,YYMMDD10.,,No,,Date part of VS.VSDTC converted to numeric SAS date,MT.ADVS.ADT,,,,Derived,,,
29,ADWGHBMI,Timing Variables for BDS Datasets,Num,Perm,ATM,Analysis Time,,integer,5,,ATM,,TIME5.,,No,,Time part of VS.VSDTC converted to numeric SAS time,MT.ADVS.ATM,,,,Derived,,,
30,ADWGHBMI,Timing Variables for BDS Datasets,Num,Perm,ADTM,Analysis Datetime,,integer,10,,ADTM,,E8601DT16.,,No,,VS.VSDTC converted to numeric SAS date,MT.ADVS.ADTM,,,,Derived,,,
31,ADWGHBMI,Timing Variables for BDS Datasets,Num,Perm,ADY,Analysis Relative Day ,,integer,3,,ADY,,,,No,,If ADT >= TRTSDT then ADY = ADT - TRTSDT + 1. Else if ADT<TRTSDT then ADY = ADT - TRTSDT,MT.ADVS.ADY,,,,Derived,,,
43,ADWGHBMI,Timing Variables for BDS Datasets,Char,Cond,AVISIT,Analysis Visit ,,text,8,,AVISIT,Analysis Visit - ADWGHBMI,,,No,,"If ADTM <= TRTSDTM then AVISIT = ""Baseline"". Else if VS.VISIT=""TREATMENT"" then AVISIT = ""Treatment"". Else AVISIT = ""DAY XX"" with XX being the prescribed study day of VS.VISIT",MT.ADVS.AVISIT,,,,Derived,,,Day 8@Treatment@Baseline@Day 15@Day 29@Day 22@Day 57@Day 43@Day 85@Day 71@Early termination@Post-Baseline Maximum@Unscheduled 2.01
44,ADWGHBMI,Timing Variables for BDS Datasets,Num,Perm,AVISITN,Analysis Visit (N),,integer,2,,AVISITN,Analysis Visit (N) - ADWGHBMI,,,No,,Numeric code for AVISITN,,,,,Assigned,,,
45,ADWGHBMI,Analysis Parameter Variables for BDS Datasets,Char,Req,PARAM,Parameter ,,text,23,,PARAM,Analaysis Parameter - ADWGHBMI,,,Yes,,,,,,,Assigned,,,Diastolic Blood Pressure (mmHg)@Pulse Rate (beats/min)@Respiratory Rate (breaths/min)@Systolic Blood Pressure (mmHg)@Temperature (C)
46,ADWGHBMI,Analysis Parameter Variables for BDS Datasets,Char,Req,PARAMCD,Parameter Code,,text,6,,PARAMCD,Analysis Parameter Code - ADWGHBMI,,,Yes,,,,,,,Assigned,,,DIABP@PULSE@RESP@SYSBP@TEMP
47,ADWGHBMI,Analysis Parameter Variables for BDS Datasets,Char,Perm,PARAMTYP,Parameter Type,,text,7,,PARAMTYP,Parameter Type,,,No,,,,,,,,,,DERIVED
107,ADWGHBMI,Analysis Parameter Variables for BDS Datasets,Num,Cond,AVAL,Analysis Value,,float,12,10,AVAL,,5.1,,No,,,,,,,Predecessor,VS.VSSTRESN,,
108,ADWGHBMI,Analysis Parameter Variables for BDS Datasets,Num,Cond,BASE,Baseline Value,,float,12,10,BASE,,5.1,,No,,"If AVISITN >=2  or ABLFL=""Y"" then BASE = AVAL of the record with ABLFL=""Y"" within the subject and parameter",MT.ADVS.BASE,,,,Derived,,,
119,ADWGHBMI,Analysis Parameter Variables for BDS Datasets,Num,Perm,CHG,Change from Baseline,,float,12,10,CHG,,4.1,,No,,AVAL - BASE,MT.ADVS.CHG,,,,Derived,,,
152,ADWGHBMI,Toxicity and Range Variables for BDS Datasets,Char,Perm,ANRIND,Analysis Reference Range Indicator,,text,6,,ANRIND,Reference Range Indicator,,,No,,"If ANRLO <= AVAL <=ANRHI then ANRIND = ""NORMAL"". Else if AVAL < ANRLO then ANRIND = ""LOW"". Else if AVAL > ANRHI then ANRIND = ""HIGH""",MT.ADVS.ANRIND,,,,Derived,,,Normal@Low@High
154,ADWGHBMI,Toxicity and Range Variables for BDS Datasets,Num,Perm,ANRLO,Analysis Normal Range Lower Limit,,integer,2,,ANRLO,,,,No,,See SAP section XX,,,,,Assigned,,,
156,ADWGHBMI,Toxicity and Range Variables for BDS Datasets,Num,Perm,ANRHI,Analysis Normal Range Upper Limit,,integer,2,,ANRHI,,,,No,,See SAP section YY,,,,,Assigned,,,
157,ADWGHBMI,Toxicity and Range Variables for BDS Datasets,Char,Perm,BNRIND,Baseline Reference Range Indicator,,text,6,,BNRIND,Reference Range Indicator,,,No,,Set to ANRIND of the baseline record identified by ABLFL,MT.ADVS.BNRIND,,,,Derived,,,
164,ADWGHBMI,Flag Variables for BDS Datasets,Char,Cond,ABLFL,Baseline Record Flag,,text,1,,ABLFL,No Yes Response - Y,,,No,,"Set to ""Y"" for the record with AVISIT=""Baseline"" and ARELTM closest to 0 within the subject and parameter",MT.ADVS.ABLFL,,,,Derived,,,Y
167,ADWGHBMI,Analysis Criterion y,Char,Perm,CRIT1,Analysis Criterion 1,,text,32,,CRIT1,Analysis Criterion 1 - ADWGHBMI,,,No,,"Set to ""PCI value (outside normal range)"" if ANRIND IN (""LOW"", ""HIGH"")",,,,,Assigned,,,PCI value (outside normal range or high decrease / increase)@PCI value (outside normal range)
168,ADWGHBMI,Criterion y Evaluation Result Flag,Char,Cond,CRIT1FL,Criterion 1 Evaluation Result Flag,,text,1,,CRIT1FL,No Yes Response - Y,,,No,,"Set to ""Y"" if ANRIND IN (""LOW"", ""HIGH"")",,,,,Derived,,,N@Y
169,ADWGHBMI,Datapoint Traceability Variables,Char,Perm,SRCDOM,Source Data,,text,8,,SRCDOM,,,,No,,,,,TRUE,,Assigned,,,
170,ADWGHBMI,Datapoint Traceability Variables,Char,Perm,SRCVAR,Source Variable,,text,8,,SRCVAR,,,,No,,,,,TRUE,,Assigned,,,
171,ADWGHBMI,Datapoint Traceability Variables,Num,Perm,SRCSEQ,Source Sequence Number,,integer,2,,SRCSEQ,,,,No,,,,,TRUE,,Assigned,,,
174,ADWGHBMI_not_used,SDTM Variable for Traceability,Num,,VSSEQ,Source Sequence Number,,integer,3,,VSSEQ,,,,No,,,,,,,Predecessor,VS.VSSEQ,,
175,ADWGHBMI_not_used,SDTM Variable for Traceability,Char,,VSSTRESC,Character Result/Finding in Std Format,,text,5,,VSSTRESC,,,,No,,,,,,,Predecessor,VS.VSSTRESC,,
176,ADWGHBMI_not_used,SDTM Variable for Traceability,Char,,VSSTRESU,Standard Units,,text,2,,VSSTRESU,VSRESU for Height and Weight,,,No,,,,,,,,,,
179,ADWGHBMI_not_used,SDTM Variable for Traceability,Char,,VSDTC,Date/Time of Measurements,,text,16,,VSDTC,,,,No,,,,,,,Predecessor,VS.VSDTC,,
53,Alternative way,Timing Variables for BDS Datasets (Sponsor-Defined),Num,,ARELTM1,Analysis Rel. Time 1 (From Start of Trt),,integer,,,,,,,,,If ADTM <= TRTEDTM then ARELTM1 = ADTM - TRTSDTM,,,,,Derived,,,
54,Alternative way,Timing Variables for BDS Datasets (Sponsor-Defined),Num,,ARELTM2,Analysis Rel. Time 2 (From End of Trt),,integer,,,,,,,,,If ADTM >= TRTEDTM then ARELTM2 = ADTM - TRTEDTM,,,,,Derived,,,
55,Alternative way,Timing Variables for BDS Datasets (Sponsor-Defined),Char,,ARELTM1U,Analysis Relative Time 1 (Unit),,text,,,,,,,,,HH:MM,,,,,Assigned,,,
56,Alternative way,Timing Variables for BDS Datasets (Sponsor-Defined),Char,,ARELTM2U,Analysis Relative Time 2 (Unit),,text,,,,,,,,,HH:MM,,,,,Assigned,,,
,,,,,,0,,,,,,,,,,,,,,,,,,,
